<?xml version="1.0" encoding="UTF-8"?>
<!-- StudyDataSet-XML: Untyped Data Example (DRAFT version)  --> 
<!-- Built from the SAS XPT files published with the SDTM-MSG (SDTM Metadata Submission Guidelines) V1 --> 
<!-- Prepared by Marcelina Hungria / DIcore Group, LLC --> 
<ODM
  xmlns="http://www.cdisc.org/ns/odm/v1.3"
  xmlns:xlink="http://www.w3.org/1999/xlink" 
  xmlns:sds="http://www.cdisc.org/ns/sds/v1.0"
  FileType="Snapshot"
  ODMVersion="1.3.2"
  sds:SDSVersion="1.0"
  FileOID="www.cdisc.org.Studycdisc01-Define-XML_2.0.0(IG.QSCG)"
  PriorFileOID="www.cdisc.org.Studycdisc01-Define-XML_2.0.0(IG.PE)"
  Originator="CDISC SDS-XML Team"
  CreationDateTime="2013-11-13T17:26:14">
  <ClinicalData
    StudyOID="cdisc01"
    MetaDataVersionOID="MDV.CDISC01.SDTMIG.3.1.2.SDTM.1.2">
    <!-- Dataset (QSCG) -->
    <ItemGroupData ItemGroupOID="IG.QSCG" sds:ItemGroupDataSeq="1">
      <ItemData ItemOID="IT.STUDYID" Value="CDISC01"/>
      <ItemData ItemOID="IT.QS.DOMAIN" Value="QS"/>
      <ItemData ItemOID="IT.USUBJID" Value="CDISC01.100008"/>
      <ItemData ItemOID="IT.QS.QSSEQ" Value="1"/>
      <ItemData ItemOID="IT.QS.QSTESTCD" Value="CGIGLOB"/>
      <ItemData ItemOID="IT.QS.QSTEST" Value="Global Improvement"/>
      <ItemData ItemOID="IT.QS.QSCAT" Value="CLINICAL GLOBAL IMPRESSIONS (CGI-I)"/>
      <ItemData ItemOID="IT.QS.QSORRES" Value="No change"/>
      <ItemData ItemOID="IT.QS.QSSTRESC" Value="4"/>
      <ItemData ItemOID="IT.QS.QSSTRESN" Value="4"/>
      <ItemData ItemOID="IT.QS.VISITNUM" Value="3"/>
      <ItemData ItemOID="IT.QS.VISIT" Value="WEEK 2"/>
      <ItemData ItemOID="IT.QS.VISITDY" Value="15"/>
      <ItemData ItemOID="IT.QS.QSDTC" Value="2003-05-13"/>
      <ItemData ItemOID="IT.QS.QSDY" Value="15"/>
    </ItemGroupData>
    <ItemGroupData ItemGroupOID="IG.QSCG" sds:ItemGroupDataSeq="2">
      <ItemData ItemOID="IT.STUDYID" Value="CDISC01"/>
      <ItemData ItemOID="IT.QS.DOMAIN" Value="QS"/>
      <ItemData ItemOID="IT.USUBJID" Value="CDISC01.100008"/>
      <ItemData ItemOID="IT.QS.QSSEQ" Value="2"/>
      <ItemData ItemOID="IT.QS.QSTESTCD" Value="CGIGLOB"/>
      <ItemData ItemOID="IT.QS.QSTEST" Value="Global Improvement"/>
      <ItemData ItemOID="IT.QS.QSCAT" Value="CLINICAL GLOBAL IMPRESSIONS (CGI-I)"/>
      <ItemData ItemOID="IT.QS.QSORRES" Value="Much Improved"/>
      <ItemData ItemOID="IT.QS.QSSTRESC" Value="2"/>
      <ItemData ItemOID="IT.QS.QSSTRESN" Value="2"/>
      <ItemData ItemOID="IT.QS.VISITNUM" Value="10"/>
      <ItemData ItemOID="IT.QS.VISIT" Value="WEEK 24"/>
      <ItemData ItemOID="IT.QS.VISITDY" Value="169"/>
      <ItemData ItemOID="IT.QS.QSDTC" Value="2003-10-13"/>
      <ItemData ItemOID="IT.QS.QSDY" Value="168"/>
    </ItemGroupData>
    <ItemGroupData ItemGroupOID="IG.QSCG" sds:ItemGroupDataSeq="3">
      <ItemData ItemOID="IT.STUDYID" Value="CDISC01"/>
      <ItemData ItemOID="IT.QS.DOMAIN" Value="QS"/>
      <ItemData ItemOID="IT.USUBJID" Value="CDISC01.100014"/>
      <ItemData ItemOID="IT.QS.QSSEQ" Value="1"/>
      <ItemData ItemOID="IT.QS.QSTESTCD" Value="CGIGLOB"/>
      <ItemData ItemOID="IT.QS.QSTEST" Value="Global Improvement"/>
      <ItemData ItemOID="IT.QS.QSCAT" Value="CLINICAL GLOBAL IMPRESSIONS (CGI-I)"/>
      <ItemData ItemOID="IT.QS.QSORRES" Value="Minimally Improved"/>
      <ItemData ItemOID="IT.QS.QSSTRESC" Value="3"/>
      <ItemData ItemOID="IT.QS.QSSTRESN" Value="3"/>
      <ItemData ItemOID="IT.QS.VISITNUM" Value="3"/>
      <ItemData ItemOID="IT.QS.VISIT" Value="WEEK 2"/>
      <ItemData ItemOID="IT.QS.VISITDY" Value="15"/>
      <ItemData ItemOID="IT.QS.QSDTC" Value="2003-10-31"/>
      <ItemData ItemOID="IT.QS.QSDY" Value="17"/>
    </ItemGroupData>
    <ItemGroupData ItemGroupOID="IG.QSCG" sds:ItemGroupDataSeq="4">
      <ItemData ItemOID="IT.STUDYID" Value="CDISC01"/>
      <ItemData ItemOID="IT.QS.DOMAIN" Value="QS"/>
      <ItemData ItemOID="IT.USUBJID" Value="CDISC01.100014"/>
      <ItemData ItemOID="IT.QS.QSSEQ" Value="2"/>
      <ItemData ItemOID="IT.QS.QSTESTCD" Value="CGIGLOB"/>
      <ItemData ItemOID="IT.QS.QSTEST" Value="Global Improvement"/>
      <ItemData ItemOID="IT.QS.QSCAT" Value="CLINICAL GLOBAL IMPRESSIONS (CGI-I)"/>
      <ItemData ItemOID="IT.QS.QSORRES" Value="Minimally Improved"/>
      <ItemData ItemOID="IT.QS.QSSTRESC" Value="3"/>
      <ItemData ItemOID="IT.QS.QSSTRESN" Value="3"/>
      <ItemData ItemOID="IT.QS.VISITNUM" Value="10"/>
      <ItemData ItemOID="IT.QS.VISIT" Value="WEEK 24"/>
      <ItemData ItemOID="IT.QS.VISITDY" Value="169"/>
      <ItemData ItemOID="IT.QS.QSDTC" Value="2004-03-30"/>
      <ItemData ItemOID="IT.QS.QSDY" Value="168"/>
    </ItemGroupData>
    <ItemGroupData ItemGroupOID="IG.QSCG" sds:ItemGroupDataSeq="5">
      <ItemData ItemOID="IT.STUDYID" Value="CDISC01"/>
      <ItemData ItemOID="IT.QS.DOMAIN" Value="QS"/>
      <ItemData ItemOID="IT.USUBJID" Value="CDISC01.200001"/>
      <ItemData ItemOID="IT.QS.QSSEQ" Value="1"/>
      <ItemData ItemOID="IT.QS.QSTESTCD" Value="CGIGLOB"/>
      <ItemData ItemOID="IT.QS.QSTEST" Value="Global Improvement"/>
      <ItemData ItemOID="IT.QS.QSCAT" Value="CLINICAL GLOBAL IMPRESSIONS (CGI-I)"/>
      <ItemData ItemOID="IT.QS.QSORRES" Value="Minimally Improved"/>
      <ItemData ItemOID="IT.QS.QSSTRESC" Value="3"/>
      <ItemData ItemOID="IT.QS.QSSTRESN" Value="3"/>
      <ItemData ItemOID="IT.QS.VISITNUM" Value="3"/>
      <ItemData ItemOID="IT.QS.VISIT" Value="WEEK 2"/>
      <ItemData ItemOID="IT.QS.VISITDY" Value="15"/>
      <ItemData ItemOID="IT.QS.QSDTC" Value="2003-10-14"/>
      <ItemData ItemOID="IT.QS.QSDY" Value="15"/>
    </ItemGroupData>
    <ItemGroupData ItemGroupOID="IG.QSCG" sds:ItemGroupDataSeq="6">
      <ItemData ItemOID="IT.STUDYID" Value="CDISC01"/>
      <ItemData ItemOID="IT.QS.DOMAIN" Value="QS"/>
      <ItemData ItemOID="IT.USUBJID" Value="CDISC01.200001"/>
      <ItemData ItemOID="IT.QS.QSSEQ" Value="2"/>
      <ItemData ItemOID="IT.QS.QSTESTCD" Value="CGIGLOB"/>
      <ItemData ItemOID="IT.QS.QSTEST" Value="Global Improvement"/>
      <ItemData ItemOID="IT.QS.QSCAT" Value="CLINICAL GLOBAL IMPRESSIONS (CGI-I)"/>
      <ItemData ItemOID="IT.QS.QSORRES" Value="Much worse"/>
      <ItemData ItemOID="IT.QS.QSSTRESC" Value="6"/>
      <ItemData ItemOID="IT.QS.QSSTRESN" Value="6"/>
      <ItemData ItemOID="IT.QS.VISITNUM" Value="10"/>
      <ItemData ItemOID="IT.QS.VISIT" Value="WEEK 24"/>
      <ItemData ItemOID="IT.QS.VISITDY" Value="169"/>
      <ItemData ItemOID="IT.QS.QSDTC" Value="2004-02-02"/>
      <ItemData ItemOID="IT.QS.QSDY" Value="126"/>
    </ItemGroupData>
    <ItemGroupData ItemGroupOID="IG.QSCG" sds:ItemGroupDataSeq="7">
      <ItemData ItemOID="IT.STUDYID" Value="CDISC01"/>
      <ItemData ItemOID="IT.QS.DOMAIN" Value="QS"/>
      <ItemData ItemOID="IT.USUBJID" Value="CDISC01.200002"/>
      <ItemData ItemOID="IT.QS.QSSEQ" Value="1"/>
      <ItemData ItemOID="IT.QS.QSTESTCD" Value="CGIGLOB"/>
      <ItemData ItemOID="IT.QS.QSTEST" Value="Global Improvement"/>
      <ItemData ItemOID="IT.QS.QSCAT" Value="CLINICAL GLOBAL IMPRESSIONS (CGI-I)"/>
      <ItemData ItemOID="IT.QS.QSORRES" Value="Much Improved"/>
      <ItemData ItemOID="IT.QS.QSSTRESC" Value="2"/>
      <ItemData ItemOID="IT.QS.QSSTRESN" Value="2"/>
      <ItemData ItemOID="IT.QS.VISITNUM" Value="3"/>
      <ItemData ItemOID="IT.QS.VISIT" Value="WEEK 2"/>
      <ItemData ItemOID="IT.QS.VISITDY" Value="15"/>
      <ItemData ItemOID="IT.QS.QSDTC" Value="2003-10-24"/>
      <ItemData ItemOID="IT.QS.QSDY" Value="15"/>
    </ItemGroupData>
    <ItemGroupData ItemGroupOID="IG.QSCG" sds:ItemGroupDataSeq="8">
      <ItemData ItemOID="IT.STUDYID" Value="CDISC01"/>
      <ItemData ItemOID="IT.QS.DOMAIN" Value="QS"/>
      <ItemData ItemOID="IT.USUBJID" Value="CDISC01.200002"/>
      <ItemData ItemOID="IT.QS.QSSEQ" Value="2"/>
      <ItemData ItemOID="IT.QS.QSTESTCD" Value="CGIGLOB"/>
      <ItemData ItemOID="IT.QS.QSTEST" Value="Global Improvement"/>
      <ItemData ItemOID="IT.QS.QSCAT" Value="CLINICAL GLOBAL IMPRESSIONS (CGI-I)"/>
      <ItemData ItemOID="IT.QS.QSORRES" Value="Very much improved"/>
      <ItemData ItemOID="IT.QS.QSSTRESC" Value="1"/>
      <ItemData ItemOID="IT.QS.QSSTRESN" Value="1"/>
      <ItemData ItemOID="IT.QS.VISITNUM" Value="10"/>
      <ItemData ItemOID="IT.QS.VISIT" Value="WEEK 24"/>
      <ItemData ItemOID="IT.QS.VISITDY" Value="169"/>
      <ItemData ItemOID="IT.QS.QSDTC" Value="2004-03-29"/>
      <ItemData ItemOID="IT.QS.QSDY" Value="172"/>
    </ItemGroupData>
  </ClinicalData>
</ODM>
