<?xml version="1.0" encoding="UTF-8"?>
<!-- StudyDataSet-XML: Untyped Data Example (DRAFT version)  --> 
<!-- Built from the SAS XPT files published with the SDTM-MSG (SDTM Metadata Submission Guidelines) V1 --> 
<!-- Prepared by Marcelina Hungria / DIcore Group, LLC --> 
<ODM
  xmlns="http://www.cdisc.org/ns/odm/v1.3"
  xmlns:xlink="http://www.w3.org/1999/xlink" 
  xmlns:sds="http://www.cdisc.org/ns/sds/v1.0"
  FileType="Snapshot"
  ODMVersion="1.3.2"
  sds:SDSVersion="1.0"
  FileOID="www.cdisc.org.Studycdisc01-Define-XML_2.0.0(IG.RELREC)"
  PriorFileOID="www.cdisc.org.Studycdisc01-Define-XML_2.0.0(IG.VS)"
  Originator="CDISC SDS-XML Team"
  CreationDateTime="2013-11-13T17:26:14">
  <ClinicalData
    StudyOID="cdisc01"
    MetaDataVersionOID="MDV.CDISC01.SDTMIG.3.1.2.SDTM.1.2">
    <!-- Dataset (RELREC) -->
    <ItemGroupData ItemGroupOID="IG.RELREC" sds:ItemGroupDataSeq="1">
      <ItemData ItemOID="IT.STUDYID" Value="CDISC01"/>
      <ItemData ItemOID="IT.RDOMAIN" Value="AE"/>
      <ItemData ItemOID="IT.USUBJID" Value="CDISC01.200001"/>
      <ItemData ItemOID="IT.RELREC.IDVAR" Value="AESPID"/>
      <ItemData ItemOID="IT.RELREC.IDVARVAL" Value="5"/>
      <ItemData ItemOID="IT.RELREC.RELID" Value="1"/>
    </ItemGroupData>
    <ItemGroupData ItemGroupOID="IG.RELREC" sds:ItemGroupDataSeq="2">
      <ItemData ItemOID="IT.STUDYID" Value="CDISC01"/>
      <ItemData ItemOID="IT.RDOMAIN" Value="DS"/>
      <ItemData ItemOID="IT.USUBJID" Value="CDISC01.200001"/>
      <ItemData ItemOID="IT.RELREC.IDVAR" Value="DSSEQ"/>
      <ItemData ItemOID="IT.RELREC.IDVARVAL" Value="3"/>
      <ItemData ItemOID="IT.RELREC.RELID" Value="1"/>
    </ItemGroupData>
  </ClinicalData>
</ODM>
