<?xml version="1.0" encoding="UTF-8"?>
<!-- StudyDataSet-XML: Untyped Data Example (DRAFT version)  --> 
<!-- Built from the SAS XPT files published with the SDTM-MSG (SDTM Metadata Submission Guidelines) V1 --> 
<!-- Prepared by Marcelina Hungria / DIcore Group, LLC --> 
<ODM
  xmlns="http://www.cdisc.org/ns/odm/v1.3"
  xmlns:xlink="http://www.w3.org/1999/xlink" 
  xmlns:sds="http://www.cdisc.org/ns/sds/v1.0"
  FileType="Snapshot"
  ODMVersion="1.3.2"
  sds:SDSVersion="1.0"
  FileOID="www.cdisc.org.Studycdisc01-Define-XML_2.0.0(IG.SUPPEX)"
  PriorFileOID="www.cdisc.org.Studycdisc01-Define-XML_2.0.0(IG.SUPPEG)"
  Originator="CDISC SDS-XML Team"
  CreationDateTime="2013-11-13T17:26:14">
  <ClinicalData
    StudyOID="cdisc01"
    MetaDataVersionOID="MDV.CDISC01.SDTMIG.3.1.2.SDTM.1.2">
    <!-- Dataset (SUPPEX) -->
    <ItemGroupData ItemGroupOID="IG.SUPPEX" sds:ItemGroupDataSeq="1">
      <ItemData ItemOID="IT.STUDYID" Value="CDISC01"/>
      <ItemData ItemOID="IT.RDOMAIN" Value="EX"/>
      <ItemData ItemOID="IT.USUBJID" Value="CDISC01.100008"/>
      <ItemData ItemOID="IT.SUPPEX.IDVAR" Value="EXSEQ"/>
      <ItemData ItemOID="IT.SUPPEX.IDVARVAL" Value="1"/>
      <ItemData ItemOID="IT.SUPPEX.QNAM" Value="SMNO"/>
      <ItemData ItemOID="IT.SUPPEX.QLABEL" Value="Number of Tablets Per Day"/>
      <ItemData ItemOID="IT.SUPPEX.QVAL" Value="1"/>
      <ItemData ItemOID="IT.SUPPEX.QORIG" Value="CRF"/>
    </ItemGroupData>
    <ItemGroupData ItemGroupOID="IG.SUPPEX" sds:ItemGroupDataSeq="2">
      <ItemData ItemOID="IT.STUDYID" Value="CDISC01"/>
      <ItemData ItemOID="IT.RDOMAIN" Value="EX"/>
      <ItemData ItemOID="IT.USUBJID" Value="CDISC01.100008"/>
      <ItemData ItemOID="IT.SUPPEX.IDVAR" Value="EXSEQ"/>
      <ItemData ItemOID="IT.SUPPEX.IDVARVAL" Value="2"/>
      <ItemData ItemOID="IT.SUPPEX.QNAM" Value="SMNO"/>
      <ItemData ItemOID="IT.SUPPEX.QLABEL" Value="Number of Tablets Per Day"/>
      <ItemData ItemOID="IT.SUPPEX.QVAL" Value="2"/>
      <ItemData ItemOID="IT.SUPPEX.QORIG" Value="CRF"/>
    </ItemGroupData>
    <ItemGroupData ItemGroupOID="IG.SUPPEX" sds:ItemGroupDataSeq="3">
      <ItemData ItemOID="IT.STUDYID" Value="CDISC01"/>
      <ItemData ItemOID="IT.RDOMAIN" Value="EX"/>
      <ItemData ItemOID="IT.USUBJID" Value="CDISC01.100008"/>
      <ItemData ItemOID="IT.SUPPEX.IDVAR" Value="EXSEQ"/>
      <ItemData ItemOID="IT.SUPPEX.IDVARVAL" Value="3"/>
      <ItemData ItemOID="IT.SUPPEX.QNAM" Value="SMNO"/>
      <ItemData ItemOID="IT.SUPPEX.QLABEL" Value="Number of Tablets Per Day"/>
      <ItemData ItemOID="IT.SUPPEX.QVAL" Value="3"/>
      <ItemData ItemOID="IT.SUPPEX.QORIG" Value="CRF"/>
    </ItemGroupData>
    <ItemGroupData ItemGroupOID="IG.SUPPEX" sds:ItemGroupDataSeq="4">
      <ItemData ItemOID="IT.STUDYID" Value="CDISC01"/>
      <ItemData ItemOID="IT.RDOMAIN" Value="EX"/>
      <ItemData ItemOID="IT.USUBJID" Value="CDISC01.100008"/>
      <ItemData ItemOID="IT.SUPPEX.IDVAR" Value="EXSEQ"/>
      <ItemData ItemOID="IT.SUPPEX.IDVARVAL" Value="4"/>
      <ItemData ItemOID="IT.SUPPEX.QNAM" Value="SMNO"/>
      <ItemData ItemOID="IT.SUPPEX.QLABEL" Value="Number of Tablets Per Day"/>
      <ItemData ItemOID="IT.SUPPEX.QVAL" Value="4"/>
      <ItemData ItemOID="IT.SUPPEX.QORIG" Value="CRF"/>
    </ItemGroupData>
    <ItemGroupData ItemGroupOID="IG.SUPPEX" sds:ItemGroupDataSeq="5">
      <ItemData ItemOID="IT.STUDYID" Value="CDISC01"/>
      <ItemData ItemOID="IT.RDOMAIN" Value="EX"/>
      <ItemData ItemOID="IT.USUBJID" Value="CDISC01.100014"/>
      <ItemData ItemOID="IT.SUPPEX.IDVAR" Value="EXSEQ"/>
      <ItemData ItemOID="IT.SUPPEX.IDVARVAL" Value="1"/>
      <ItemData ItemOID="IT.SUPPEX.QNAM" Value="SMNO"/>
      <ItemData ItemOID="IT.SUPPEX.QLABEL" Value="Number of Tablets Per Day"/>
      <ItemData ItemOID="IT.SUPPEX.QVAL" Value="1"/>
      <ItemData ItemOID="IT.SUPPEX.QORIG" Value="CRF"/>
    </ItemGroupData>
    <ItemGroupData ItemGroupOID="IG.SUPPEX" sds:ItemGroupDataSeq="6">
      <ItemData ItemOID="IT.STUDYID" Value="CDISC01"/>
      <ItemData ItemOID="IT.RDOMAIN" Value="EX"/>
      <ItemData ItemOID="IT.USUBJID" Value="CDISC01.100014"/>
      <ItemData ItemOID="IT.SUPPEX.IDVAR" Value="EXSEQ"/>
      <ItemData ItemOID="IT.SUPPEX.IDVARVAL" Value="2"/>
      <ItemData ItemOID="IT.SUPPEX.QNAM" Value="SMNO"/>
      <ItemData ItemOID="IT.SUPPEX.QLABEL" Value="Number of Tablets Per Day"/>
      <ItemData ItemOID="IT.SUPPEX.QVAL" Value="2"/>
      <ItemData ItemOID="IT.SUPPEX.QORIG" Value="CRF"/>
    </ItemGroupData>
    <ItemGroupData ItemGroupOID="IG.SUPPEX" sds:ItemGroupDataSeq="7">
      <ItemData ItemOID="IT.STUDYID" Value="CDISC01"/>
      <ItemData ItemOID="IT.RDOMAIN" Value="EX"/>
      <ItemData ItemOID="IT.USUBJID" Value="CDISC01.100014"/>
      <ItemData ItemOID="IT.SUPPEX.IDVAR" Value="EXSEQ"/>
      <ItemData ItemOID="IT.SUPPEX.IDVARVAL" Value="3"/>
      <ItemData ItemOID="IT.SUPPEX.QNAM" Value="SMNO"/>
      <ItemData ItemOID="IT.SUPPEX.QLABEL" Value="Number of Tablets Per Day"/>
      <ItemData ItemOID="IT.SUPPEX.QVAL" Value="3"/>
      <ItemData ItemOID="IT.SUPPEX.QORIG" Value="CRF"/>
    </ItemGroupData>
    <ItemGroupData ItemGroupOID="IG.SUPPEX" sds:ItemGroupDataSeq="8">
      <ItemData ItemOID="IT.STUDYID" Value="CDISC01"/>
      <ItemData ItemOID="IT.RDOMAIN" Value="EX"/>
      <ItemData ItemOID="IT.USUBJID" Value="CDISC01.200001"/>
      <ItemData ItemOID="IT.SUPPEX.IDVAR" Value="EXSEQ"/>
      <ItemData ItemOID="IT.SUPPEX.IDVARVAL" Value="1"/>
      <ItemData ItemOID="IT.SUPPEX.QNAM" Value="SMNO"/>
      <ItemData ItemOID="IT.SUPPEX.QLABEL" Value="Number of Tablets Per Day"/>
      <ItemData ItemOID="IT.SUPPEX.QVAL" Value="1"/>
      <ItemData ItemOID="IT.SUPPEX.QORIG" Value="CRF"/>
    </ItemGroupData>
    <ItemGroupData ItemGroupOID="IG.SUPPEX" sds:ItemGroupDataSeq="9">
      <ItemData ItemOID="IT.STUDYID" Value="CDISC01"/>
      <ItemData ItemOID="IT.RDOMAIN" Value="EX"/>
      <ItemData ItemOID="IT.USUBJID" Value="CDISC01.200001"/>
      <ItemData ItemOID="IT.SUPPEX.IDVAR" Value="EXSEQ"/>
      <ItemData ItemOID="IT.SUPPEX.IDVARVAL" Value="2"/>
      <ItemData ItemOID="IT.SUPPEX.QNAM" Value="SMNO"/>
      <ItemData ItemOID="IT.SUPPEX.QLABEL" Value="Number of Tablets Per Day"/>
      <ItemData ItemOID="IT.SUPPEX.QVAL" Value="2"/>
      <ItemData ItemOID="IT.SUPPEX.QORIG" Value="CRF"/>
    </ItemGroupData>
    <ItemGroupData ItemGroupOID="IG.SUPPEX" sds:ItemGroupDataSeq="10">
      <ItemData ItemOID="IT.STUDYID" Value="CDISC01"/>
      <ItemData ItemOID="IT.RDOMAIN" Value="EX"/>
      <ItemData ItemOID="IT.USUBJID" Value="CDISC01.200001"/>
      <ItemData ItemOID="IT.SUPPEX.IDVAR" Value="EXSEQ"/>
      <ItemData ItemOID="IT.SUPPEX.IDVARVAL" Value="3"/>
      <ItemData ItemOID="IT.SUPPEX.QNAM" Value="SMNO"/>
      <ItemData ItemOID="IT.SUPPEX.QLABEL" Value="Number of Tablets Per Day"/>
      <ItemData ItemOID="IT.SUPPEX.QVAL" Value="3"/>
      <ItemData ItemOID="IT.SUPPEX.QORIG" Value="CRF"/>
    </ItemGroupData>
    <ItemGroupData ItemGroupOID="IG.SUPPEX" sds:ItemGroupDataSeq="11">
      <ItemData ItemOID="IT.STUDYID" Value="CDISC01"/>
      <ItemData ItemOID="IT.RDOMAIN" Value="EX"/>
      <ItemData ItemOID="IT.USUBJID" Value="CDISC01.200001"/>
      <ItemData ItemOID="IT.SUPPEX.IDVAR" Value="EXSEQ"/>
      <ItemData ItemOID="IT.SUPPEX.IDVARVAL" Value="4"/>
      <ItemData ItemOID="IT.SUPPEX.QNAM" Value="SMNO"/>
      <ItemData ItemOID="IT.SUPPEX.QLABEL" Value="Number of Tablets Per Day"/>
      <ItemData ItemOID="IT.SUPPEX.QVAL" Value="4"/>
      <ItemData ItemOID="IT.SUPPEX.QORIG" Value="CRF"/>
    </ItemGroupData>
    <ItemGroupData ItemGroupOID="IG.SUPPEX" sds:ItemGroupDataSeq="12">
      <ItemData ItemOID="IT.STUDYID" Value="CDISC01"/>
      <ItemData ItemOID="IT.RDOMAIN" Value="EX"/>
      <ItemData ItemOID="IT.USUBJID" Value="CDISC01.200002"/>
      <ItemData ItemOID="IT.SUPPEX.IDVAR" Value="EXSEQ"/>
      <ItemData ItemOID="IT.SUPPEX.IDVARVAL" Value="1"/>
      <ItemData ItemOID="IT.SUPPEX.QNAM" Value="SMNO"/>
      <ItemData ItemOID="IT.SUPPEX.QLABEL" Value="Number of Tablets Per Day"/>
      <ItemData ItemOID="IT.SUPPEX.QVAL" Value="1"/>
      <ItemData ItemOID="IT.SUPPEX.QORIG" Value="CRF"/>
    </ItemGroupData>
    <ItemGroupData ItemGroupOID="IG.SUPPEX" sds:ItemGroupDataSeq="13">
      <ItemData ItemOID="IT.STUDYID" Value="CDISC01"/>
      <ItemData ItemOID="IT.RDOMAIN" Value="EX"/>
      <ItemData ItemOID="IT.USUBJID" Value="CDISC01.200002"/>
      <ItemData ItemOID="IT.SUPPEX.IDVAR" Value="EXSEQ"/>
      <ItemData ItemOID="IT.SUPPEX.IDVARVAL" Value="2"/>
      <ItemData ItemOID="IT.SUPPEX.QNAM" Value="SMNO"/>
      <ItemData ItemOID="IT.SUPPEX.QLABEL" Value="Number of Tablets Per Day"/>
      <ItemData ItemOID="IT.SUPPEX.QVAL" Value="0"/>
      <ItemData ItemOID="IT.SUPPEX.QORIG" Value="CRF"/>
    </ItemGroupData>
    <ItemGroupData ItemGroupOID="IG.SUPPEX" sds:ItemGroupDataSeq="14">
      <ItemData ItemOID="IT.STUDYID" Value="CDISC01"/>
      <ItemData ItemOID="IT.RDOMAIN" Value="EX"/>
      <ItemData ItemOID="IT.USUBJID" Value="CDISC01.200002"/>
      <ItemData ItemOID="IT.SUPPEX.IDVAR" Value="EXSEQ"/>
      <ItemData ItemOID="IT.SUPPEX.IDVARVAL" Value="3"/>
      <ItemData ItemOID="IT.SUPPEX.QNAM" Value="SMNO"/>
      <ItemData ItemOID="IT.SUPPEX.QLABEL" Value="Number of Tablets Per Day"/>
      <ItemData ItemOID="IT.SUPPEX.QVAL" Value="2"/>
      <ItemData ItemOID="IT.SUPPEX.QORIG" Value="CRF"/>
    </ItemGroupData>
    <ItemGroupData ItemGroupOID="IG.SUPPEX" sds:ItemGroupDataSeq="15">
      <ItemData ItemOID="IT.STUDYID" Value="CDISC01"/>
      <ItemData ItemOID="IT.RDOMAIN" Value="EX"/>
      <ItemData ItemOID="IT.USUBJID" Value="CDISC01.200002"/>
      <ItemData ItemOID="IT.SUPPEX.IDVAR" Value="EXSEQ"/>
      <ItemData ItemOID="IT.SUPPEX.IDVARVAL" Value="4"/>
      <ItemData ItemOID="IT.SUPPEX.QNAM" Value="SMNO"/>
      <ItemData ItemOID="IT.SUPPEX.QLABEL" Value="Number of Tablets Per Day"/>
      <ItemData ItemOID="IT.SUPPEX.QVAL" Value="3"/>
      <ItemData ItemOID="IT.SUPPEX.QORIG" Value="CRF"/>
    </ItemGroupData>
    <ItemGroupData ItemGroupOID="IG.SUPPEX" sds:ItemGroupDataSeq="16">
      <ItemData ItemOID="IT.STUDYID" Value="CDISC01"/>
      <ItemData ItemOID="IT.RDOMAIN" Value="EX"/>
      <ItemData ItemOID="IT.USUBJID" Value="CDISC01.200002"/>
      <ItemData ItemOID="IT.SUPPEX.IDVAR" Value="EXSEQ"/>
      <ItemData ItemOID="IT.SUPPEX.IDVARVAL" Value="5"/>
      <ItemData ItemOID="IT.SUPPEX.QNAM" Value="SMNO"/>
      <ItemData ItemOID="IT.SUPPEX.QLABEL" Value="Number of Tablets Per Day"/>
      <ItemData ItemOID="IT.SUPPEX.QVAL" Value="4"/>
      <ItemData ItemOID="IT.SUPPEX.QORIG" Value="CRF"/>
    </ItemGroupData>
    <ItemGroupData ItemGroupOID="IG.SUPPEX" sds:ItemGroupDataSeq="17">
      <ItemData ItemOID="IT.STUDYID" Value="CDISC01"/>
      <ItemData ItemOID="IT.RDOMAIN" Value="EX"/>
      <ItemData ItemOID="IT.USUBJID" Value="CDISC01.200002"/>
      <ItemData ItemOID="IT.SUPPEX.IDVAR" Value="EXSEQ"/>
      <ItemData ItemOID="IT.SUPPEX.IDVARVAL" Value="6"/>
      <ItemData ItemOID="IT.SUPPEX.QNAM" Value="SMNO"/>
      <ItemData ItemOID="IT.SUPPEX.QLABEL" Value="Number of Tablets Per Day"/>
      <ItemData ItemOID="IT.SUPPEX.QVAL" Value="0"/>
      <ItemData ItemOID="IT.SUPPEX.QORIG" Value="CRF"/>
    </ItemGroupData>
  </ClinicalData>
</ODM>
