<?xml version="1.0" encoding="UTF-8"?>
<!-- StudyDataSet-XML: Untyped Data Example (DRAFT version)  --> 
<!-- Built from the SAS XPT files published with the SDTM-MSG (SDTM Metadata Submission Guidelines) V1 --> 
<!-- Prepared by Marcelina Hungria / DIcore Group, LLC --> 
<ODM
  xmlns="http://www.cdisc.org/ns/odm/v1.3"
  xmlns:xlink="http://www.w3.org/1999/xlink" 
  xmlns:sds="http://www.cdisc.org/ns/sds/v1.0"
  FileType="Snapshot"
  ODMVersion="1.3.2"
  sds:SDSVersion="1.0"
  FileOID="www.cdisc.org.Studycdisc01-Define-XML_2.0.0(IG.SUPPAE)"
  PriorFileOID="www.cdisc.org.Studycdisc01-Define-XML_2.0.0(IG.RELREC)"
  Originator="CDISC SDS-XML Team"
  CreationDateTime="2013-11-13T17:26:14">
  <ClinicalData
    StudyOID="cdisc01"
    MetaDataVersionOID="MDV.CDISC01.SDTMIG.3.1.2.SDTM.1.2">
    <!-- Dataset (SUPPAE) -->
    <ItemGroupData ItemGroupOID="IG.SUPPAE" sds:ItemGroupDataSeq="1">
      <ItemData ItemOID="IT.STUDYID" Value="CDISC01"/>
      <ItemData ItemOID="IT.RDOMAIN" Value="AE"/>
      <ItemData ItemOID="IT.USUBJID" Value="CDISC01.100008"/>
      <ItemData ItemOID="IT.SUPPAE.IDVAR" Value="AESEQ"/>
      <ItemData ItemOID="IT.SUPPAE.IDVARVAL" Value="1"/>
      <ItemData ItemOID="IT.SUPPAE.QNAM" Value="AETRTEM"/>
      <ItemData ItemOID="IT.SUPPAE.QLABEL" Value="Treatment Emergent Flag"/>
      <ItemData ItemOID="IT.SUPPAE.QVAL" Value="Y"/>
      <ItemData ItemOID="IT.SUPPAE.QORIG" Value="Derived"/>
    </ItemGroupData>
    <ItemGroupData ItemGroupOID="IG.SUPPAE" sds:ItemGroupDataSeq="2">
      <ItemData ItemOID="IT.STUDYID" Value="CDISC01"/>
      <ItemData ItemOID="IT.RDOMAIN" Value="AE"/>
      <ItemData ItemOID="IT.USUBJID" Value="CDISC01.100008"/>
      <ItemData ItemOID="IT.SUPPAE.IDVAR" Value="AESEQ"/>
      <ItemData ItemOID="IT.SUPPAE.IDVARVAL" Value="1"/>
      <ItemData ItemOID="IT.SUPPAE.QNAM" Value="HLGT"/>
      <ItemData ItemOID="IT.SUPPAE.QLABEL" Value="Higher Level Group Term"/>
      <ItemData ItemOID="IT.SUPPAE.QVAL" Value="Anxiety disorders and symptoms"/>
      <ItemData ItemOID="IT.SUPPAE.QORIG" Value="Assigned"/>
      <ItemData ItemOID="IT.SUPPAE.QEVAL" Value="CLINICAL STUDY SPONSOR"/>
    </ItemGroupData>
    <ItemGroupData ItemGroupOID="IG.SUPPAE" sds:ItemGroupDataSeq="3">
      <ItemData ItemOID="IT.STUDYID" Value="CDISC01"/>
      <ItemData ItemOID="IT.RDOMAIN" Value="AE"/>
      <ItemData ItemOID="IT.USUBJID" Value="CDISC01.100008"/>
      <ItemData ItemOID="IT.SUPPAE.IDVAR" Value="AESEQ"/>
      <ItemData ItemOID="IT.SUPPAE.IDVARVAL" Value="1"/>
      <ItemData ItemOID="IT.SUPPAE.QNAM" Value="HLT"/>
      <ItemData ItemOID="IT.SUPPAE.QLABEL" Value="Higher Level Term"/>
      <ItemData ItemOID="IT.SUPPAE.QVAL" Value="Anxiety symptoms"/>
      <ItemData ItemOID="IT.SUPPAE.QORIG" Value="Assigned"/>
      <ItemData ItemOID="IT.SUPPAE.QEVAL" Value="CLINICAL STUDY SPONSOR"/>
    </ItemGroupData>
    <ItemGroupData ItemGroupOID="IG.SUPPAE" sds:ItemGroupDataSeq="4">
      <ItemData ItemOID="IT.STUDYID" Value="CDISC01"/>
      <ItemData ItemOID="IT.RDOMAIN" Value="AE"/>
      <ItemData ItemOID="IT.USUBJID" Value="CDISC01.100008"/>
      <ItemData ItemOID="IT.SUPPAE.IDVAR" Value="AESEQ"/>
      <ItemData ItemOID="IT.SUPPAE.IDVARVAL" Value="1"/>
      <ItemData ItemOID="IT.SUPPAE.QNAM" Value="LLT"/>
      <ItemData ItemOID="IT.SUPPAE.QLABEL" Value="Lowest Level Term"/>
      <ItemData ItemOID="IT.SUPPAE.QVAL" Value="Agitation"/>
      <ItemData ItemOID="IT.SUPPAE.QORIG" Value="Assigned"/>
      <ItemData ItemOID="IT.SUPPAE.QEVAL" Value="CLINICAL STUDY SPONSOR"/>
    </ItemGroupData>
    <ItemGroupData ItemGroupOID="IG.SUPPAE" sds:ItemGroupDataSeq="5">
      <ItemData ItemOID="IT.STUDYID" Value="CDISC01"/>
      <ItemData ItemOID="IT.RDOMAIN" Value="AE"/>
      <ItemData ItemOID="IT.USUBJID" Value="CDISC01.100008"/>
      <ItemData ItemOID="IT.SUPPAE.IDVAR" Value="AESEQ"/>
      <ItemData ItemOID="IT.SUPPAE.IDVARVAL" Value="2"/>
      <ItemData ItemOID="IT.SUPPAE.QNAM" Value="AETRTEM"/>
      <ItemData ItemOID="IT.SUPPAE.QLABEL" Value="Treatment Emergent Flag"/>
      <ItemData ItemOID="IT.SUPPAE.QVAL" Value="Y"/>
      <ItemData ItemOID="IT.SUPPAE.QORIG" Value="Derived"/>
    </ItemGroupData>
    <ItemGroupData ItemGroupOID="IG.SUPPAE" sds:ItemGroupDataSeq="6">
      <ItemData ItemOID="IT.STUDYID" Value="CDISC01"/>
      <ItemData ItemOID="IT.RDOMAIN" Value="AE"/>
      <ItemData ItemOID="IT.USUBJID" Value="CDISC01.100008"/>
      <ItemData ItemOID="IT.SUPPAE.IDVAR" Value="AESEQ"/>
      <ItemData ItemOID="IT.SUPPAE.IDVARVAL" Value="2"/>
      <ItemData ItemOID="IT.SUPPAE.QNAM" Value="HLGT"/>
      <ItemData ItemOID="IT.SUPPAE.QLABEL" Value="Higher Level Group Term"/>
      <ItemData ItemOID="IT.SUPPAE.QVAL" Value="Anxiety disorders and symptoms"/>
      <ItemData ItemOID="IT.SUPPAE.QORIG" Value="Assigned"/>
      <ItemData ItemOID="IT.SUPPAE.QEVAL" Value="CLINICAL STUDY SPONSOR"/>
    </ItemGroupData>
    <ItemGroupData ItemGroupOID="IG.SUPPAE" sds:ItemGroupDataSeq="7">
      <ItemData ItemOID="IT.STUDYID" Value="CDISC01"/>
      <ItemData ItemOID="IT.RDOMAIN" Value="AE"/>
      <ItemData ItemOID="IT.USUBJID" Value="CDISC01.100008"/>
      <ItemData ItemOID="IT.SUPPAE.IDVAR" Value="AESEQ"/>
      <ItemData ItemOID="IT.SUPPAE.IDVARVAL" Value="2"/>
      <ItemData ItemOID="IT.SUPPAE.QNAM" Value="HLT"/>
      <ItemData ItemOID="IT.SUPPAE.QLABEL" Value="Higher Level Term"/>
      <ItemData ItemOID="IT.SUPPAE.QVAL" Value="Anxiety symptoms"/>
      <ItemData ItemOID="IT.SUPPAE.QORIG" Value="Assigned"/>
      <ItemData ItemOID="IT.SUPPAE.QEVAL" Value="CLINICAL STUDY SPONSOR"/>
    </ItemGroupData>
    <ItemGroupData ItemGroupOID="IG.SUPPAE" sds:ItemGroupDataSeq="8">
      <ItemData ItemOID="IT.STUDYID" Value="CDISC01"/>
      <ItemData ItemOID="IT.RDOMAIN" Value="AE"/>
      <ItemData ItemOID="IT.USUBJID" Value="CDISC01.100008"/>
      <ItemData ItemOID="IT.SUPPAE.IDVAR" Value="AESEQ"/>
      <ItemData ItemOID="IT.SUPPAE.IDVARVAL" Value="2"/>
      <ItemData ItemOID="IT.SUPPAE.QNAM" Value="LLT"/>
      <ItemData ItemOID="IT.SUPPAE.QLABEL" Value="Lowest Level Term"/>
      <ItemData ItemOID="IT.SUPPAE.QVAL" Value="Anxiety"/>
      <ItemData ItemOID="IT.SUPPAE.QORIG" Value="Assigned"/>
      <ItemData ItemOID="IT.SUPPAE.QEVAL" Value="CLINICAL STUDY SPONSOR"/>
    </ItemGroupData>
    <ItemGroupData ItemGroupOID="IG.SUPPAE" sds:ItemGroupDataSeq="9">
      <ItemData ItemOID="IT.STUDYID" Value="CDISC01"/>
      <ItemData ItemOID="IT.RDOMAIN" Value="AE"/>
      <ItemData ItemOID="IT.USUBJID" Value="CDISC01.100008"/>
      <ItemData ItemOID="IT.SUPPAE.IDVAR" Value="AESEQ"/>
      <ItemData ItemOID="IT.SUPPAE.IDVARVAL" Value="3"/>
      <ItemData ItemOID="IT.SUPPAE.QNAM" Value="AETRTEM"/>
      <ItemData ItemOID="IT.SUPPAE.QLABEL" Value="Treatment Emergent Flag"/>
      <ItemData ItemOID="IT.SUPPAE.QVAL" Value="Y"/>
      <ItemData ItemOID="IT.SUPPAE.QORIG" Value="Derived"/>
    </ItemGroupData>
    <ItemGroupData ItemGroupOID="IG.SUPPAE" sds:ItemGroupDataSeq="10">
      <ItemData ItemOID="IT.STUDYID" Value="CDISC01"/>
      <ItemData ItemOID="IT.RDOMAIN" Value="AE"/>
      <ItemData ItemOID="IT.USUBJID" Value="CDISC01.100008"/>
      <ItemData ItemOID="IT.SUPPAE.IDVAR" Value="AESEQ"/>
      <ItemData ItemOID="IT.SUPPAE.IDVARVAL" Value="3"/>
      <ItemData ItemOID="IT.SUPPAE.QNAM" Value="HLGT"/>
      <ItemData ItemOID="IT.SUPPAE.QLABEL" Value="Higher Level Group Term"/>
      <ItemData ItemOID="IT.SUPPAE.QVAL" Value="Appetite and general nutritional disorders"/>
      <ItemData ItemOID="IT.SUPPAE.QORIG" Value="Assigned"/>
      <ItemData ItemOID="IT.SUPPAE.QEVAL" Value="CLINICAL STUDY SPONSOR"/>
    </ItemGroupData>
    <ItemGroupData ItemGroupOID="IG.SUPPAE" sds:ItemGroupDataSeq="11">
      <ItemData ItemOID="IT.STUDYID" Value="CDISC01"/>
      <ItemData ItemOID="IT.RDOMAIN" Value="AE"/>
      <ItemData ItemOID="IT.USUBJID" Value="CDISC01.100008"/>
      <ItemData ItemOID="IT.SUPPAE.IDVAR" Value="AESEQ"/>
      <ItemData ItemOID="IT.SUPPAE.IDVARVAL" Value="3"/>
      <ItemData ItemOID="IT.SUPPAE.QNAM" Value="HLT"/>
      <ItemData ItemOID="IT.SUPPAE.QLABEL" Value="Higher Level Term"/>
      <ItemData ItemOID="IT.SUPPAE.QVAL" Value="Appetite disorders"/>
      <ItemData ItemOID="IT.SUPPAE.QORIG" Value="Assigned"/>
      <ItemData ItemOID="IT.SUPPAE.QEVAL" Value="CLINICAL STUDY SPONSOR"/>
    </ItemGroupData>
    <ItemGroupData ItemGroupOID="IG.SUPPAE" sds:ItemGroupDataSeq="12">
      <ItemData ItemOID="IT.STUDYID" Value="CDISC01"/>
      <ItemData ItemOID="IT.RDOMAIN" Value="AE"/>
      <ItemData ItemOID="IT.USUBJID" Value="CDISC01.100008"/>
      <ItemData ItemOID="IT.SUPPAE.IDVAR" Value="AESEQ"/>
      <ItemData ItemOID="IT.SUPPAE.IDVARVAL" Value="3"/>
      <ItemData ItemOID="IT.SUPPAE.QNAM" Value="LLT"/>
      <ItemData ItemOID="IT.SUPPAE.QLABEL" Value="Lowest Level Term"/>
      <ItemData ItemOID="IT.SUPPAE.QVAL" Value="Decreased appetite"/>
      <ItemData ItemOID="IT.SUPPAE.QORIG" Value="Assigned"/>
      <ItemData ItemOID="IT.SUPPAE.QEVAL" Value="CLINICAL STUDY SPONSOR"/>
    </ItemGroupData>
    <ItemGroupData ItemGroupOID="IG.SUPPAE" sds:ItemGroupDataSeq="13">
      <ItemData ItemOID="IT.STUDYID" Value="CDISC01"/>
      <ItemData ItemOID="IT.RDOMAIN" Value="AE"/>
      <ItemData ItemOID="IT.USUBJID" Value="CDISC01.100014"/>
      <ItemData ItemOID="IT.SUPPAE.IDVAR" Value="AESEQ"/>
      <ItemData ItemOID="IT.SUPPAE.IDVARVAL" Value="1"/>
      <ItemData ItemOID="IT.SUPPAE.QNAM" Value="AETRTEM"/>
      <ItemData ItemOID="IT.SUPPAE.QLABEL" Value="Treatment Emergent Flag"/>
      <ItemData ItemOID="IT.SUPPAE.QVAL" Value="Y"/>
      <ItemData ItemOID="IT.SUPPAE.QORIG" Value="Derived"/>
    </ItemGroupData>
    <ItemGroupData ItemGroupOID="IG.SUPPAE" sds:ItemGroupDataSeq="14">
      <ItemData ItemOID="IT.STUDYID" Value="CDISC01"/>
      <ItemData ItemOID="IT.RDOMAIN" Value="AE"/>
      <ItemData ItemOID="IT.USUBJID" Value="CDISC01.100014"/>
      <ItemData ItemOID="IT.SUPPAE.IDVAR" Value="AESEQ"/>
      <ItemData ItemOID="IT.SUPPAE.IDVARVAL" Value="1"/>
      <ItemData ItemOID="IT.SUPPAE.QNAM" Value="HLGT"/>
      <ItemData ItemOID="IT.SUPPAE.QLABEL" Value="Higher Level Group Term"/>
      <ItemData ItemOID="IT.SUPPAE.QVAL" Value="Gastrointestinal motility and defaecation conditions"/>
      <ItemData ItemOID="IT.SUPPAE.QORIG" Value="Assigned"/>
      <ItemData ItemOID="IT.SUPPAE.QEVAL" Value="CLINICAL STUDY SPONSOR"/>
    </ItemGroupData>
    <ItemGroupData ItemGroupOID="IG.SUPPAE" sds:ItemGroupDataSeq="15">
      <ItemData ItemOID="IT.STUDYID" Value="CDISC01"/>
      <ItemData ItemOID="IT.RDOMAIN" Value="AE"/>
      <ItemData ItemOID="IT.USUBJID" Value="CDISC01.100014"/>
      <ItemData ItemOID="IT.SUPPAE.IDVAR" Value="AESEQ"/>
      <ItemData ItemOID="IT.SUPPAE.IDVARVAL" Value="1"/>
      <ItemData ItemOID="IT.SUPPAE.QNAM" Value="HLT"/>
      <ItemData ItemOID="IT.SUPPAE.QLABEL" Value="Higher Level Term"/>
      <ItemData ItemOID="IT.SUPPAE.QVAL" Value="Diarrhoea (excl infective)"/>
      <ItemData ItemOID="IT.SUPPAE.QORIG" Value="Assigned"/>
      <ItemData ItemOID="IT.SUPPAE.QEVAL" Value="CLINICAL STUDY SPONSOR"/>
    </ItemGroupData>
    <ItemGroupData ItemGroupOID="IG.SUPPAE" sds:ItemGroupDataSeq="16">
      <ItemData ItemOID="IT.STUDYID" Value="CDISC01"/>
      <ItemData ItemOID="IT.RDOMAIN" Value="AE"/>
      <ItemData ItemOID="IT.USUBJID" Value="CDISC01.100014"/>
      <ItemData ItemOID="IT.SUPPAE.IDVAR" Value="AESEQ"/>
      <ItemData ItemOID="IT.SUPPAE.IDVARVAL" Value="1"/>
      <ItemData ItemOID="IT.SUPPAE.QNAM" Value="LLT"/>
      <ItemData ItemOID="IT.SUPPAE.QLABEL" Value="Lowest Level Term"/>
      <ItemData ItemOID="IT.SUPPAE.QVAL" Value="Diarrhea"/>
      <ItemData ItemOID="IT.SUPPAE.QORIG" Value="Assigned"/>
      <ItemData ItemOID="IT.SUPPAE.QEVAL" Value="CLINICAL STUDY SPONSOR"/>
    </ItemGroupData>
    <ItemGroupData ItemGroupOID="IG.SUPPAE" sds:ItemGroupDataSeq="17">
      <ItemData ItemOID="IT.STUDYID" Value="CDISC01"/>
      <ItemData ItemOID="IT.RDOMAIN" Value="AE"/>
      <ItemData ItemOID="IT.USUBJID" Value="CDISC01.100014"/>
      <ItemData ItemOID="IT.SUPPAE.IDVAR" Value="AESEQ"/>
      <ItemData ItemOID="IT.SUPPAE.IDVARVAL" Value="2"/>
      <ItemData ItemOID="IT.SUPPAE.QNAM" Value="AETRTEM"/>
      <ItemData ItemOID="IT.SUPPAE.QLABEL" Value="Treatment Emergent Flag"/>
      <ItemData ItemOID="IT.SUPPAE.QVAL" Value="Y"/>
      <ItemData ItemOID="IT.SUPPAE.QORIG" Value="Derived"/>
    </ItemGroupData>
    <ItemGroupData ItemGroupOID="IG.SUPPAE" sds:ItemGroupDataSeq="18">
      <ItemData ItemOID="IT.STUDYID" Value="CDISC01"/>
      <ItemData ItemOID="IT.RDOMAIN" Value="AE"/>
      <ItemData ItemOID="IT.USUBJID" Value="CDISC01.100014"/>
      <ItemData ItemOID="IT.SUPPAE.IDVAR" Value="AESEQ"/>
      <ItemData ItemOID="IT.SUPPAE.IDVARVAL" Value="2"/>
      <ItemData ItemOID="IT.SUPPAE.QNAM" Value="HLGT"/>
      <ItemData ItemOID="IT.SUPPAE.QLABEL" Value="Higher Level Group Term"/>
      <ItemData ItemOID="IT.SUPPAE.QVAL" Value="Gastrointestinal vascular conditions"/>
      <ItemData ItemOID="IT.SUPPAE.QORIG" Value="Assigned"/>
      <ItemData ItemOID="IT.SUPPAE.QEVAL" Value="CLINICAL STUDY SPONSOR"/>
    </ItemGroupData>
    <ItemGroupData ItemGroupOID="IG.SUPPAE" sds:ItemGroupDataSeq="19">
      <ItemData ItemOID="IT.STUDYID" Value="CDISC01"/>
      <ItemData ItemOID="IT.RDOMAIN" Value="AE"/>
      <ItemData ItemOID="IT.USUBJID" Value="CDISC01.100014"/>
      <ItemData ItemOID="IT.SUPPAE.IDVAR" Value="AESEQ"/>
      <ItemData ItemOID="IT.SUPPAE.IDVARVAL" Value="2"/>
      <ItemData ItemOID="IT.SUPPAE.QNAM" Value="HLT"/>
      <ItemData ItemOID="IT.SUPPAE.QLABEL" Value="Higher Level Term"/>
      <ItemData ItemOID="IT.SUPPAE.QVAL" Value="Haemorrhoids and gastrointestinal varices (excl oesophageal)"/>
      <ItemData ItemOID="IT.SUPPAE.QORIG" Value="Assigned"/>
      <ItemData ItemOID="IT.SUPPAE.QEVAL" Value="CLINICAL STUDY SPONSOR"/>
    </ItemGroupData>
    <ItemGroupData ItemGroupOID="IG.SUPPAE" sds:ItemGroupDataSeq="20">
      <ItemData ItemOID="IT.STUDYID" Value="CDISC01"/>
      <ItemData ItemOID="IT.RDOMAIN" Value="AE"/>
      <ItemData ItemOID="IT.USUBJID" Value="CDISC01.100014"/>
      <ItemData ItemOID="IT.SUPPAE.IDVAR" Value="AESEQ"/>
      <ItemData ItemOID="IT.SUPPAE.IDVARVAL" Value="2"/>
      <ItemData ItemOID="IT.SUPPAE.QNAM" Value="LLT"/>
      <ItemData ItemOID="IT.SUPPAE.QLABEL" Value="Lowest Level Term"/>
      <ItemData ItemOID="IT.SUPPAE.QVAL" Value="Hemorrhoids"/>
      <ItemData ItemOID="IT.SUPPAE.QORIG" Value="Assigned"/>
      <ItemData ItemOID="IT.SUPPAE.QEVAL" Value="CLINICAL STUDY SPONSOR"/>
    </ItemGroupData>
    <ItemGroupData ItemGroupOID="IG.SUPPAE" sds:ItemGroupDataSeq="21">
      <ItemData ItemOID="IT.STUDYID" Value="CDISC01"/>
      <ItemData ItemOID="IT.RDOMAIN" Value="AE"/>
      <ItemData ItemOID="IT.USUBJID" Value="CDISC01.100014"/>
      <ItemData ItemOID="IT.SUPPAE.IDVAR" Value="AESEQ"/>
      <ItemData ItemOID="IT.SUPPAE.IDVARVAL" Value="3"/>
      <ItemData ItemOID="IT.SUPPAE.QNAM" Value="AETRTEM"/>
      <ItemData ItemOID="IT.SUPPAE.QLABEL" Value="Treatment Emergent Flag"/>
      <ItemData ItemOID="IT.SUPPAE.QVAL" Value="Y"/>
      <ItemData ItemOID="IT.SUPPAE.QORIG" Value="Derived"/>
    </ItemGroupData>
    <ItemGroupData ItemGroupOID="IG.SUPPAE" sds:ItemGroupDataSeq="22">
      <ItemData ItemOID="IT.STUDYID" Value="CDISC01"/>
      <ItemData ItemOID="IT.RDOMAIN" Value="AE"/>
      <ItemData ItemOID="IT.USUBJID" Value="CDISC01.100014"/>
      <ItemData ItemOID="IT.SUPPAE.IDVAR" Value="AESEQ"/>
      <ItemData ItemOID="IT.SUPPAE.IDVARVAL" Value="3"/>
      <ItemData ItemOID="IT.SUPPAE.QNAM" Value="HLGT"/>
      <ItemData ItemOID="IT.SUPPAE.QLABEL" Value="Higher Level Group Term"/>
      <ItemData ItemOID="IT.SUPPAE.QVAL" Value="Headaches"/>
      <ItemData ItemOID="IT.SUPPAE.QORIG" Value="Assigned"/>
      <ItemData ItemOID="IT.SUPPAE.QEVAL" Value="CLINICAL STUDY SPONSOR"/>
    </ItemGroupData>
    <ItemGroupData ItemGroupOID="IG.SUPPAE" sds:ItemGroupDataSeq="23">
      <ItemData ItemOID="IT.STUDYID" Value="CDISC01"/>
      <ItemData ItemOID="IT.RDOMAIN" Value="AE"/>
      <ItemData ItemOID="IT.USUBJID" Value="CDISC01.100014"/>
      <ItemData ItemOID="IT.SUPPAE.IDVAR" Value="AESEQ"/>
      <ItemData ItemOID="IT.SUPPAE.IDVARVAL" Value="3"/>
      <ItemData ItemOID="IT.SUPPAE.QNAM" Value="HLT"/>
      <ItemData ItemOID="IT.SUPPAE.QLABEL" Value="Higher Level Term"/>
      <ItemData ItemOID="IT.SUPPAE.QVAL" Value="Headaches NEC"/>
      <ItemData ItemOID="IT.SUPPAE.QORIG" Value="Assigned"/>
      <ItemData ItemOID="IT.SUPPAE.QEVAL" Value="CLINICAL STUDY SPONSOR"/>
    </ItemGroupData>
    <ItemGroupData ItemGroupOID="IG.SUPPAE" sds:ItemGroupDataSeq="24">
      <ItemData ItemOID="IT.STUDYID" Value="CDISC01"/>
      <ItemData ItemOID="IT.RDOMAIN" Value="AE"/>
      <ItemData ItemOID="IT.USUBJID" Value="CDISC01.100014"/>
      <ItemData ItemOID="IT.SUPPAE.IDVAR" Value="AESEQ"/>
      <ItemData ItemOID="IT.SUPPAE.IDVARVAL" Value="3"/>
      <ItemData ItemOID="IT.SUPPAE.QNAM" Value="LLT"/>
      <ItemData ItemOID="IT.SUPPAE.QLABEL" Value="Lowest Level Term"/>
      <ItemData ItemOID="IT.SUPPAE.QVAL" Value="Headache"/>
      <ItemData ItemOID="IT.SUPPAE.QORIG" Value="Assigned"/>
      <ItemData ItemOID="IT.SUPPAE.QEVAL" Value="CLINICAL STUDY SPONSOR"/>
    </ItemGroupData>
    <ItemGroupData ItemGroupOID="IG.SUPPAE" sds:ItemGroupDataSeq="25">
      <ItemData ItemOID="IT.STUDYID" Value="CDISC01"/>
      <ItemData ItemOID="IT.RDOMAIN" Value="AE"/>
      <ItemData ItemOID="IT.USUBJID" Value="CDISC01.100014"/>
      <ItemData ItemOID="IT.SUPPAE.IDVAR" Value="AESEQ"/>
      <ItemData ItemOID="IT.SUPPAE.IDVARVAL" Value="4"/>
      <ItemData ItemOID="IT.SUPPAE.QNAM" Value="AETRTEM"/>
      <ItemData ItemOID="IT.SUPPAE.QLABEL" Value="Treatment Emergent Flag"/>
      <ItemData ItemOID="IT.SUPPAE.QVAL" Value="Y"/>
      <ItemData ItemOID="IT.SUPPAE.QORIG" Value="Derived"/>
    </ItemGroupData>
    <ItemGroupData ItemGroupOID="IG.SUPPAE" sds:ItemGroupDataSeq="26">
      <ItemData ItemOID="IT.STUDYID" Value="CDISC01"/>
      <ItemData ItemOID="IT.RDOMAIN" Value="AE"/>
      <ItemData ItemOID="IT.USUBJID" Value="CDISC01.100014"/>
      <ItemData ItemOID="IT.SUPPAE.IDVAR" Value="AESEQ"/>
      <ItemData ItemOID="IT.SUPPAE.IDVARVAL" Value="4"/>
      <ItemData ItemOID="IT.SUPPAE.QNAM" Value="HLGT"/>
      <ItemData ItemOID="IT.SUPPAE.QLABEL" Value="Higher Level Group Term"/>
      <ItemData ItemOID="IT.SUPPAE.QVAL" Value="Gastrointestinal signs and symptoms"/>
      <ItemData ItemOID="IT.SUPPAE.QORIG" Value="Assigned"/>
      <ItemData ItemOID="IT.SUPPAE.QEVAL" Value="CLINICAL STUDY SPONSOR"/>
    </ItemGroupData>
    <ItemGroupData ItemGroupOID="IG.SUPPAE" sds:ItemGroupDataSeq="27">
      <ItemData ItemOID="IT.STUDYID" Value="CDISC01"/>
      <ItemData ItemOID="IT.RDOMAIN" Value="AE"/>
      <ItemData ItemOID="IT.USUBJID" Value="CDISC01.100014"/>
      <ItemData ItemOID="IT.SUPPAE.IDVAR" Value="AESEQ"/>
      <ItemData ItemOID="IT.SUPPAE.IDVARVAL" Value="4"/>
      <ItemData ItemOID="IT.SUPPAE.QNAM" Value="HLT"/>
      <ItemData ItemOID="IT.SUPPAE.QLABEL" Value="Higher Level Term"/>
      <ItemData ItemOID="IT.SUPPAE.QVAL" Value="Nausea and vomiting symptoms"/>
      <ItemData ItemOID="IT.SUPPAE.QORIG" Value="Assigned"/>
      <ItemData ItemOID="IT.SUPPAE.QEVAL" Value="CLINICAL STUDY SPONSOR"/>
    </ItemGroupData>
    <ItemGroupData ItemGroupOID="IG.SUPPAE" sds:ItemGroupDataSeq="28">
      <ItemData ItemOID="IT.STUDYID" Value="CDISC01"/>
      <ItemData ItemOID="IT.RDOMAIN" Value="AE"/>
      <ItemData ItemOID="IT.USUBJID" Value="CDISC01.100014"/>
      <ItemData ItemOID="IT.SUPPAE.IDVAR" Value="AESEQ"/>
      <ItemData ItemOID="IT.SUPPAE.IDVARVAL" Value="4"/>
      <ItemData ItemOID="IT.SUPPAE.QNAM" Value="LLT"/>
      <ItemData ItemOID="IT.SUPPAE.QLABEL" Value="Lowest Level Term"/>
      <ItemData ItemOID="IT.SUPPAE.QVAL" Value="Vomiting"/>
      <ItemData ItemOID="IT.SUPPAE.QORIG" Value="Assigned"/>
      <ItemData ItemOID="IT.SUPPAE.QEVAL" Value="CLINICAL STUDY SPONSOR"/>
    </ItemGroupData>
    <ItemGroupData ItemGroupOID="IG.SUPPAE" sds:ItemGroupDataSeq="29">
      <ItemData ItemOID="IT.STUDYID" Value="CDISC01"/>
      <ItemData ItemOID="IT.RDOMAIN" Value="AE"/>
      <ItemData ItemOID="IT.USUBJID" Value="CDISC01.100014"/>
      <ItemData ItemOID="IT.SUPPAE.IDVAR" Value="AESEQ"/>
      <ItemData ItemOID="IT.SUPPAE.IDVARVAL" Value="5"/>
      <ItemData ItemOID="IT.SUPPAE.QNAM" Value="HLGT"/>
      <ItemData ItemOID="IT.SUPPAE.QLABEL" Value="Higher Level Group Term"/>
      <ItemData ItemOID="IT.SUPPAE.QVAL" Value="Gastrointestinal signs and symptoms"/>
      <ItemData ItemOID="IT.SUPPAE.QORIG" Value="Assigned"/>
      <ItemData ItemOID="IT.SUPPAE.QEVAL" Value="CLINICAL STUDY SPONSOR"/>
    </ItemGroupData>
    <ItemGroupData ItemGroupOID="IG.SUPPAE" sds:ItemGroupDataSeq="30">
      <ItemData ItemOID="IT.STUDYID" Value="CDISC01"/>
      <ItemData ItemOID="IT.RDOMAIN" Value="AE"/>
      <ItemData ItemOID="IT.USUBJID" Value="CDISC01.100014"/>
      <ItemData ItemOID="IT.SUPPAE.IDVAR" Value="AESEQ"/>
      <ItemData ItemOID="IT.SUPPAE.IDVARVAL" Value="5"/>
      <ItemData ItemOID="IT.SUPPAE.QNAM" Value="HLT"/>
      <ItemData ItemOID="IT.SUPPAE.QLABEL" Value="Higher Level Term"/>
      <ItemData ItemOID="IT.SUPPAE.QVAL" Value="Nausea and vomiting symptoms"/>
      <ItemData ItemOID="IT.SUPPAE.QORIG" Value="Assigned"/>
      <ItemData ItemOID="IT.SUPPAE.QEVAL" Value="CLINICAL STUDY SPONSOR"/>
    </ItemGroupData>
    <ItemGroupData ItemGroupOID="IG.SUPPAE" sds:ItemGroupDataSeq="31">
      <ItemData ItemOID="IT.STUDYID" Value="CDISC01"/>
      <ItemData ItemOID="IT.RDOMAIN" Value="AE"/>
      <ItemData ItemOID="IT.USUBJID" Value="CDISC01.100014"/>
      <ItemData ItemOID="IT.SUPPAE.IDVAR" Value="AESEQ"/>
      <ItemData ItemOID="IT.SUPPAE.IDVARVAL" Value="5"/>
      <ItemData ItemOID="IT.SUPPAE.QNAM" Value="LLT"/>
      <ItemData ItemOID="IT.SUPPAE.QLABEL" Value="Lowest Level Term"/>
      <ItemData ItemOID="IT.SUPPAE.QVAL" Value="Vomiting"/>
      <ItemData ItemOID="IT.SUPPAE.QORIG" Value="Assigned"/>
      <ItemData ItemOID="IT.SUPPAE.QEVAL" Value="CLINICAL STUDY SPONSOR"/>
    </ItemGroupData>
    <ItemGroupData ItemGroupOID="IG.SUPPAE" sds:ItemGroupDataSeq="32">
      <ItemData ItemOID="IT.STUDYID" Value="CDISC01"/>
      <ItemData ItemOID="IT.RDOMAIN" Value="AE"/>
      <ItemData ItemOID="IT.USUBJID" Value="CDISC01.200001"/>
      <ItemData ItemOID="IT.SUPPAE.IDVAR" Value="AESEQ"/>
      <ItemData ItemOID="IT.SUPPAE.IDVARVAL" Value="1"/>
      <ItemData ItemOID="IT.SUPPAE.QNAM" Value="AETRTEM"/>
      <ItemData ItemOID="IT.SUPPAE.QLABEL" Value="Treatment Emergent Flag"/>
      <ItemData ItemOID="IT.SUPPAE.QVAL" Value="Y"/>
      <ItemData ItemOID="IT.SUPPAE.QORIG" Value="Derived"/>
    </ItemGroupData>
    <ItemGroupData ItemGroupOID="IG.SUPPAE" sds:ItemGroupDataSeq="33">
      <ItemData ItemOID="IT.STUDYID" Value="CDISC01"/>
      <ItemData ItemOID="IT.RDOMAIN" Value="AE"/>
      <ItemData ItemOID="IT.USUBJID" Value="CDISC01.200001"/>
      <ItemData ItemOID="IT.SUPPAE.IDVAR" Value="AESEQ"/>
      <ItemData ItemOID="IT.SUPPAE.IDVARVAL" Value="1"/>
      <ItemData ItemOID="IT.SUPPAE.QNAM" Value="HLGT"/>
      <ItemData ItemOID="IT.SUPPAE.QLABEL" Value="Higher Level Group Term"/>
      <ItemData ItemOID="IT.SUPPAE.QVAL" Value="Anxiety disorders and symptoms"/>
      <ItemData ItemOID="IT.SUPPAE.QORIG" Value="Assigned"/>
      <ItemData ItemOID="IT.SUPPAE.QEVAL" Value="CLINICAL STUDY SPONSOR"/>
    </ItemGroupData>
    <ItemGroupData ItemGroupOID="IG.SUPPAE" sds:ItemGroupDataSeq="34">
      <ItemData ItemOID="IT.STUDYID" Value="CDISC01"/>
      <ItemData ItemOID="IT.RDOMAIN" Value="AE"/>
      <ItemData ItemOID="IT.USUBJID" Value="CDISC01.200001"/>
      <ItemData ItemOID="IT.SUPPAE.IDVAR" Value="AESEQ"/>
      <ItemData ItemOID="IT.SUPPAE.IDVARVAL" Value="1"/>
      <ItemData ItemOID="IT.SUPPAE.QNAM" Value="HLT"/>
      <ItemData ItemOID="IT.SUPPAE.QLABEL" Value="Higher Level Term"/>
      <ItemData ItemOID="IT.SUPPAE.QVAL" Value="Anxiety symptoms"/>
      <ItemData ItemOID="IT.SUPPAE.QORIG" Value="Assigned"/>
      <ItemData ItemOID="IT.SUPPAE.QEVAL" Value="CLINICAL STUDY SPONSOR"/>
    </ItemGroupData>
    <ItemGroupData ItemGroupOID="IG.SUPPAE" sds:ItemGroupDataSeq="35">
      <ItemData ItemOID="IT.STUDYID" Value="CDISC01"/>
      <ItemData ItemOID="IT.RDOMAIN" Value="AE"/>
      <ItemData ItemOID="IT.USUBJID" Value="CDISC01.200001"/>
      <ItemData ItemOID="IT.SUPPAE.IDVAR" Value="AESEQ"/>
      <ItemData ItemOID="IT.SUPPAE.IDVARVAL" Value="1"/>
      <ItemData ItemOID="IT.SUPPAE.QNAM" Value="LLT"/>
      <ItemData ItemOID="IT.SUPPAE.QLABEL" Value="Lowest Level Term"/>
      <ItemData ItemOID="IT.SUPPAE.QVAL" Value="Anxiety"/>
      <ItemData ItemOID="IT.SUPPAE.QORIG" Value="Assigned"/>
      <ItemData ItemOID="IT.SUPPAE.QEVAL" Value="CLINICAL STUDY SPONSOR"/>
    </ItemGroupData>
    <ItemGroupData ItemGroupOID="IG.SUPPAE" sds:ItemGroupDataSeq="36">
      <ItemData ItemOID="IT.STUDYID" Value="CDISC01"/>
      <ItemData ItemOID="IT.RDOMAIN" Value="AE"/>
      <ItemData ItemOID="IT.USUBJID" Value="CDISC01.200001"/>
      <ItemData ItemOID="IT.SUPPAE.IDVAR" Value="AESEQ"/>
      <ItemData ItemOID="IT.SUPPAE.IDVARVAL" Value="2"/>
      <ItemData ItemOID="IT.SUPPAE.QNAM" Value="AETRTEM"/>
      <ItemData ItemOID="IT.SUPPAE.QLABEL" Value="Treatment Emergent Flag"/>
      <ItemData ItemOID="IT.SUPPAE.QVAL" Value="Y"/>
      <ItemData ItemOID="IT.SUPPAE.QORIG" Value="Derived"/>
    </ItemGroupData>
    <ItemGroupData ItemGroupOID="IG.SUPPAE" sds:ItemGroupDataSeq="37">
      <ItemData ItemOID="IT.STUDYID" Value="CDISC01"/>
      <ItemData ItemOID="IT.RDOMAIN" Value="AE"/>
      <ItemData ItemOID="IT.USUBJID" Value="CDISC01.200001"/>
      <ItemData ItemOID="IT.SUPPAE.IDVAR" Value="AESEQ"/>
      <ItemData ItemOID="IT.SUPPAE.IDVARVAL" Value="2"/>
      <ItemData ItemOID="IT.SUPPAE.QNAM" Value="HLGT"/>
      <ItemData ItemOID="IT.SUPPAE.QLABEL" Value="Higher Level Group Term"/>
      <ItemData ItemOID="IT.SUPPAE.QVAL" Value="Joint disorders"/>
      <ItemData ItemOID="IT.SUPPAE.QORIG" Value="Assigned"/>
      <ItemData ItemOID="IT.SUPPAE.QEVAL" Value="CLINICAL STUDY SPONSOR"/>
    </ItemGroupData>
    <ItemGroupData ItemGroupOID="IG.SUPPAE" sds:ItemGroupDataSeq="38">
      <ItemData ItemOID="IT.STUDYID" Value="CDISC01"/>
      <ItemData ItemOID="IT.RDOMAIN" Value="AE"/>
      <ItemData ItemOID="IT.USUBJID" Value="CDISC01.200001"/>
      <ItemData ItemOID="IT.SUPPAE.IDVAR" Value="AESEQ"/>
      <ItemData ItemOID="IT.SUPPAE.IDVARVAL" Value="2"/>
      <ItemData ItemOID="IT.SUPPAE.QNAM" Value="HLT"/>
      <ItemData ItemOID="IT.SUPPAE.QLABEL" Value="Higher Level Term"/>
      <ItemData ItemOID="IT.SUPPAE.QVAL" Value="Joint related signs and symptoms"/>
      <ItemData ItemOID="IT.SUPPAE.QORIG" Value="Assigned"/>
      <ItemData ItemOID="IT.SUPPAE.QEVAL" Value="CLINICAL STUDY SPONSOR"/>
    </ItemGroupData>
    <ItemGroupData ItemGroupOID="IG.SUPPAE" sds:ItemGroupDataSeq="39">
      <ItemData ItemOID="IT.STUDYID" Value="CDISC01"/>
      <ItemData ItemOID="IT.RDOMAIN" Value="AE"/>
      <ItemData ItemOID="IT.USUBJID" Value="CDISC01.200001"/>
      <ItemData ItemOID="IT.SUPPAE.IDVAR" Value="AESEQ"/>
      <ItemData ItemOID="IT.SUPPAE.IDVARVAL" Value="2"/>
      <ItemData ItemOID="IT.SUPPAE.QNAM" Value="LLT"/>
      <ItemData ItemOID="IT.SUPPAE.QLABEL" Value="Lowest Level Term"/>
      <ItemData ItemOID="IT.SUPPAE.QVAL" Value="Knee pain"/>
      <ItemData ItemOID="IT.SUPPAE.QORIG" Value="Assigned"/>
      <ItemData ItemOID="IT.SUPPAE.QEVAL" Value="CLINICAL STUDY SPONSOR"/>
    </ItemGroupData>
    <ItemGroupData ItemGroupOID="IG.SUPPAE" sds:ItemGroupDataSeq="40">
      <ItemData ItemOID="IT.STUDYID" Value="CDISC01"/>
      <ItemData ItemOID="IT.RDOMAIN" Value="AE"/>
      <ItemData ItemOID="IT.USUBJID" Value="CDISC01.200001"/>
      <ItemData ItemOID="IT.SUPPAE.IDVAR" Value="AESEQ"/>
      <ItemData ItemOID="IT.SUPPAE.IDVARVAL" Value="3"/>
      <ItemData ItemOID="IT.SUPPAE.QNAM" Value="AETRTEM"/>
      <ItemData ItemOID="IT.SUPPAE.QLABEL" Value="Treatment Emergent Flag"/>
      <ItemData ItemOID="IT.SUPPAE.QVAL" Value="Y"/>
      <ItemData ItemOID="IT.SUPPAE.QORIG" Value="Derived"/>
    </ItemGroupData>
    <ItemGroupData ItemGroupOID="IG.SUPPAE" sds:ItemGroupDataSeq="41">
      <ItemData ItemOID="IT.STUDYID" Value="CDISC01"/>
      <ItemData ItemOID="IT.RDOMAIN" Value="AE"/>
      <ItemData ItemOID="IT.USUBJID" Value="CDISC01.200001"/>
      <ItemData ItemOID="IT.SUPPAE.IDVAR" Value="AESEQ"/>
      <ItemData ItemOID="IT.SUPPAE.IDVARVAL" Value="3"/>
      <ItemData ItemOID="IT.SUPPAE.QNAM" Value="HLGT"/>
      <ItemData ItemOID="IT.SUPPAE.QLABEL" Value="Higher Level Group Term"/>
      <ItemData ItemOID="IT.SUPPAE.QVAL" Value="Gastrointestinal motility and defaecation conditions"/>
      <ItemData ItemOID="IT.SUPPAE.QORIG" Value="Assigned"/>
      <ItemData ItemOID="IT.SUPPAE.QEVAL" Value="CLINICAL STUDY SPONSOR"/>
    </ItemGroupData>
    <ItemGroupData ItemGroupOID="IG.SUPPAE" sds:ItemGroupDataSeq="42">
      <ItemData ItemOID="IT.STUDYID" Value="CDISC01"/>
      <ItemData ItemOID="IT.RDOMAIN" Value="AE"/>
      <ItemData ItemOID="IT.USUBJID" Value="CDISC01.200001"/>
      <ItemData ItemOID="IT.SUPPAE.IDVAR" Value="AESEQ"/>
      <ItemData ItemOID="IT.SUPPAE.IDVARVAL" Value="3"/>
      <ItemData ItemOID="IT.SUPPAE.QNAM" Value="HLT"/>
      <ItemData ItemOID="IT.SUPPAE.QLABEL" Value="Higher Level Term"/>
      <ItemData ItemOID="IT.SUPPAE.QVAL" Value="Gastrointestinal atonic and hypomotility disorders NEC"/>
      <ItemData ItemOID="IT.SUPPAE.QORIG" Value="Assigned"/>
      <ItemData ItemOID="IT.SUPPAE.QEVAL" Value="CLINICAL STUDY SPONSOR"/>
    </ItemGroupData>
    <ItemGroupData ItemGroupOID="IG.SUPPAE" sds:ItemGroupDataSeq="43">
      <ItemData ItemOID="IT.STUDYID" Value="CDISC01"/>
      <ItemData ItemOID="IT.RDOMAIN" Value="AE"/>
      <ItemData ItemOID="IT.USUBJID" Value="CDISC01.200001"/>
      <ItemData ItemOID="IT.SUPPAE.IDVAR" Value="AESEQ"/>
      <ItemData ItemOID="IT.SUPPAE.IDVARVAL" Value="3"/>
      <ItemData ItemOID="IT.SUPPAE.QNAM" Value="LLT"/>
      <ItemData ItemOID="IT.SUPPAE.QLABEL" Value="Lowest Level Term"/>
      <ItemData ItemOID="IT.SUPPAE.QVAL" Value="Constipation"/>
      <ItemData ItemOID="IT.SUPPAE.QORIG" Value="Assigned"/>
      <ItemData ItemOID="IT.SUPPAE.QEVAL" Value="CLINICAL STUDY SPONSOR"/>
    </ItemGroupData>
    <ItemGroupData ItemGroupOID="IG.SUPPAE" sds:ItemGroupDataSeq="44">
      <ItemData ItemOID="IT.STUDYID" Value="CDISC01"/>
      <ItemData ItemOID="IT.RDOMAIN" Value="AE"/>
      <ItemData ItemOID="IT.USUBJID" Value="CDISC01.200001"/>
      <ItemData ItemOID="IT.SUPPAE.IDVAR" Value="AESEQ"/>
      <ItemData ItemOID="IT.SUPPAE.IDVARVAL" Value="4"/>
      <ItemData ItemOID="IT.SUPPAE.QNAM" Value="AETRTEM"/>
      <ItemData ItemOID="IT.SUPPAE.QLABEL" Value="Treatment Emergent Flag"/>
      <ItemData ItemOID="IT.SUPPAE.QVAL" Value="Y"/>
      <ItemData ItemOID="IT.SUPPAE.QORIG" Value="Derived"/>
    </ItemGroupData>
    <ItemGroupData ItemGroupOID="IG.SUPPAE" sds:ItemGroupDataSeq="45">
      <ItemData ItemOID="IT.STUDYID" Value="CDISC01"/>
      <ItemData ItemOID="IT.RDOMAIN" Value="AE"/>
      <ItemData ItemOID="IT.USUBJID" Value="CDISC01.200001"/>
      <ItemData ItemOID="IT.SUPPAE.IDVAR" Value="AESEQ"/>
      <ItemData ItemOID="IT.SUPPAE.IDVARVAL" Value="4"/>
      <ItemData ItemOID="IT.SUPPAE.QNAM" Value="HLGT"/>
      <ItemData ItemOID="IT.SUPPAE.QLABEL" Value="Higher Level Group Term"/>
      <ItemData ItemOID="IT.SUPPAE.QVAL" Value="General system disorders NEC"/>
      <ItemData ItemOID="IT.SUPPAE.QORIG" Value="Assigned"/>
      <ItemData ItemOID="IT.SUPPAE.QEVAL" Value="CLINICAL STUDY SPONSOR"/>
    </ItemGroupData>
    <ItemGroupData ItemGroupOID="IG.SUPPAE" sds:ItemGroupDataSeq="46">
      <ItemData ItemOID="IT.STUDYID" Value="CDISC01"/>
      <ItemData ItemOID="IT.RDOMAIN" Value="AE"/>
      <ItemData ItemOID="IT.USUBJID" Value="CDISC01.200001"/>
      <ItemData ItemOID="IT.SUPPAE.IDVAR" Value="AESEQ"/>
      <ItemData ItemOID="IT.SUPPAE.IDVARVAL" Value="4"/>
      <ItemData ItemOID="IT.SUPPAE.QNAM" Value="HLT"/>
      <ItemData ItemOID="IT.SUPPAE.QLABEL" Value="Higher Level Term"/>
      <ItemData ItemOID="IT.SUPPAE.QVAL" Value="Asthenic conditions"/>
      <ItemData ItemOID="IT.SUPPAE.QORIG" Value="Assigned"/>
      <ItemData ItemOID="IT.SUPPAE.QEVAL" Value="CLINICAL STUDY SPONSOR"/>
    </ItemGroupData>
    <ItemGroupData ItemGroupOID="IG.SUPPAE" sds:ItemGroupDataSeq="47">
      <ItemData ItemOID="IT.STUDYID" Value="CDISC01"/>
      <ItemData ItemOID="IT.RDOMAIN" Value="AE"/>
      <ItemData ItemOID="IT.USUBJID" Value="CDISC01.200001"/>
      <ItemData ItemOID="IT.SUPPAE.IDVAR" Value="AESEQ"/>
      <ItemData ItemOID="IT.SUPPAE.IDVARVAL" Value="4"/>
      <ItemData ItemOID="IT.SUPPAE.QNAM" Value="LLT"/>
      <ItemData ItemOID="IT.SUPPAE.QLABEL" Value="Lowest Level Term"/>
      <ItemData ItemOID="IT.SUPPAE.QVAL" Value="Fatigue"/>
      <ItemData ItemOID="IT.SUPPAE.QORIG" Value="Assigned"/>
      <ItemData ItemOID="IT.SUPPAE.QEVAL" Value="CLINICAL STUDY SPONSOR"/>
    </ItemGroupData>
    <ItemGroupData ItemGroupOID="IG.SUPPAE" sds:ItemGroupDataSeq="48">
      <ItemData ItemOID="IT.STUDYID" Value="CDISC01"/>
      <ItemData ItemOID="IT.RDOMAIN" Value="AE"/>
      <ItemData ItemOID="IT.USUBJID" Value="CDISC01.200001"/>
      <ItemData ItemOID="IT.SUPPAE.IDVAR" Value="AESEQ"/>
      <ItemData ItemOID="IT.SUPPAE.IDVARVAL" Value="5"/>
      <ItemData ItemOID="IT.SUPPAE.QNAM" Value="AETRTEM"/>
      <ItemData ItemOID="IT.SUPPAE.QLABEL" Value="Treatment Emergent Flag"/>
      <ItemData ItemOID="IT.SUPPAE.QVAL" Value="Y"/>
      <ItemData ItemOID="IT.SUPPAE.QORIG" Value="Derived"/>
    </ItemGroupData>
    <ItemGroupData ItemGroupOID="IG.SUPPAE" sds:ItemGroupDataSeq="49">
      <ItemData ItemOID="IT.STUDYID" Value="CDISC01"/>
      <ItemData ItemOID="IT.RDOMAIN" Value="AE"/>
      <ItemData ItemOID="IT.USUBJID" Value="CDISC01.200001"/>
      <ItemData ItemOID="IT.SUPPAE.IDVAR" Value="AESEQ"/>
      <ItemData ItemOID="IT.SUPPAE.IDVARVAL" Value="5"/>
      <ItemData ItemOID="IT.SUPPAE.QNAM" Value="HLGT"/>
      <ItemData ItemOID="IT.SUPPAE.QLABEL" Value="Higher Level Group Term"/>
      <ItemData ItemOID="IT.SUPPAE.QVAL" Value="Gastrointestinal signs and symptoms"/>
      <ItemData ItemOID="IT.SUPPAE.QORIG" Value="Assigned"/>
      <ItemData ItemOID="IT.SUPPAE.QEVAL" Value="CLINICAL STUDY SPONSOR"/>
    </ItemGroupData>
    <ItemGroupData ItemGroupOID="IG.SUPPAE" sds:ItemGroupDataSeq="50">
      <ItemData ItemOID="IT.STUDYID" Value="CDISC01"/>
      <ItemData ItemOID="IT.RDOMAIN" Value="AE"/>
      <ItemData ItemOID="IT.USUBJID" Value="CDISC01.200001"/>
      <ItemData ItemOID="IT.SUPPAE.IDVAR" Value="AESEQ"/>
      <ItemData ItemOID="IT.SUPPAE.IDVARVAL" Value="5"/>
      <ItemData ItemOID="IT.SUPPAE.QNAM" Value="HLT"/>
      <ItemData ItemOID="IT.SUPPAE.QLABEL" Value="Higher Level Term"/>
      <ItemData ItemOID="IT.SUPPAE.QVAL" Value="Nausea and vomiting symptoms"/>
      <ItemData ItemOID="IT.SUPPAE.QORIG" Value="Assigned"/>
      <ItemData ItemOID="IT.SUPPAE.QEVAL" Value="CLINICAL STUDY SPONSOR"/>
    </ItemGroupData>
    <ItemGroupData ItemGroupOID="IG.SUPPAE" sds:ItemGroupDataSeq="51">
      <ItemData ItemOID="IT.STUDYID" Value="CDISC01"/>
      <ItemData ItemOID="IT.RDOMAIN" Value="AE"/>
      <ItemData ItemOID="IT.USUBJID" Value="CDISC01.200001"/>
      <ItemData ItemOID="IT.SUPPAE.IDVAR" Value="AESEQ"/>
      <ItemData ItemOID="IT.SUPPAE.IDVARVAL" Value="5"/>
      <ItemData ItemOID="IT.SUPPAE.QNAM" Value="LLT"/>
      <ItemData ItemOID="IT.SUPPAE.QLABEL" Value="Lowest Level Term"/>
      <ItemData ItemOID="IT.SUPPAE.QVAL" Value="Nausea"/>
      <ItemData ItemOID="IT.SUPPAE.QORIG" Value="Assigned"/>
      <ItemData ItemOID="IT.SUPPAE.QEVAL" Value="CLINICAL STUDY SPONSOR"/>
    </ItemGroupData>
    <ItemGroupData ItemGroupOID="IG.SUPPAE" sds:ItemGroupDataSeq="52">
      <ItemData ItemOID="IT.STUDYID" Value="CDISC01"/>
      <ItemData ItemOID="IT.RDOMAIN" Value="AE"/>
      <ItemData ItemOID="IT.USUBJID" Value="CDISC01.200002"/>
      <ItemData ItemOID="IT.SUPPAE.IDVAR" Value="AESEQ"/>
      <ItemData ItemOID="IT.SUPPAE.IDVARVAL" Value="1"/>
      <ItemData ItemOID="IT.SUPPAE.QNAM" Value="AETRTEM"/>
      <ItemData ItemOID="IT.SUPPAE.QLABEL" Value="Treatment Emergent Flag"/>
      <ItemData ItemOID="IT.SUPPAE.QVAL" Value="Y"/>
      <ItemData ItemOID="IT.SUPPAE.QORIG" Value="Derived"/>
    </ItemGroupData>
    <ItemGroupData ItemGroupOID="IG.SUPPAE" sds:ItemGroupDataSeq="53">
      <ItemData ItemOID="IT.STUDYID" Value="CDISC01"/>
      <ItemData ItemOID="IT.RDOMAIN" Value="AE"/>
      <ItemData ItemOID="IT.USUBJID" Value="CDISC01.200002"/>
      <ItemData ItemOID="IT.SUPPAE.IDVAR" Value="AESEQ"/>
      <ItemData ItemOID="IT.SUPPAE.IDVARVAL" Value="1"/>
      <ItemData ItemOID="IT.SUPPAE.QNAM" Value="HLGT"/>
      <ItemData ItemOID="IT.SUPPAE.QLABEL" Value="Higher Level Group Term"/>
      <ItemData ItemOID="IT.SUPPAE.QVAL" Value="Neurological disorders NEC"/>
      <ItemData ItemOID="IT.SUPPAE.QORIG" Value="Assigned"/>
      <ItemData ItemOID="IT.SUPPAE.QEVAL" Value="CLINICAL STUDY SPONSOR"/>
    </ItemGroupData>
    <ItemGroupData ItemGroupOID="IG.SUPPAE" sds:ItemGroupDataSeq="54">
      <ItemData ItemOID="IT.STUDYID" Value="CDISC01"/>
      <ItemData ItemOID="IT.RDOMAIN" Value="AE"/>
      <ItemData ItemOID="IT.USUBJID" Value="CDISC01.200002"/>
      <ItemData ItemOID="IT.SUPPAE.IDVAR" Value="AESEQ"/>
      <ItemData ItemOID="IT.SUPPAE.IDVARVAL" Value="1"/>
      <ItemData ItemOID="IT.SUPPAE.QNAM" Value="HLT"/>
      <ItemData ItemOID="IT.SUPPAE.QLABEL" Value="Higher Level Term"/>
      <ItemData ItemOID="IT.SUPPAE.QVAL" Value="Neurological signs and symptoms NEC"/>
      <ItemData ItemOID="IT.SUPPAE.QORIG" Value="Assigned"/>
      <ItemData ItemOID="IT.SUPPAE.QEVAL" Value="CLINICAL STUDY SPONSOR"/>
    </ItemGroupData>
    <ItemGroupData ItemGroupOID="IG.SUPPAE" sds:ItemGroupDataSeq="55">
      <ItemData ItemOID="IT.STUDYID" Value="CDISC01"/>
      <ItemData ItemOID="IT.RDOMAIN" Value="AE"/>
      <ItemData ItemOID="IT.USUBJID" Value="CDISC01.200002"/>
      <ItemData ItemOID="IT.SUPPAE.IDVAR" Value="AESEQ"/>
      <ItemData ItemOID="IT.SUPPAE.IDVARVAL" Value="1"/>
      <ItemData ItemOID="IT.SUPPAE.QNAM" Value="LLT"/>
      <ItemData ItemOID="IT.SUPPAE.QLABEL" Value="Lowest Level Term"/>
      <ItemData ItemOID="IT.SUPPAE.QVAL" Value="Lightheadedness"/>
      <ItemData ItemOID="IT.SUPPAE.QORIG" Value="Assigned"/>
      <ItemData ItemOID="IT.SUPPAE.QEVAL" Value="CLINICAL STUDY SPONSOR"/>
    </ItemGroupData>
    <ItemGroupData ItemGroupOID="IG.SUPPAE" sds:ItemGroupDataSeq="56">
      <ItemData ItemOID="IT.STUDYID" Value="CDISC01"/>
      <ItemData ItemOID="IT.RDOMAIN" Value="AE"/>
      <ItemData ItemOID="IT.USUBJID" Value="CDISC01.200002"/>
      <ItemData ItemOID="IT.SUPPAE.IDVAR" Value="AESEQ"/>
      <ItemData ItemOID="IT.SUPPAE.IDVARVAL" Value="2"/>
      <ItemData ItemOID="IT.SUPPAE.QNAM" Value="AETRTEM"/>
      <ItemData ItemOID="IT.SUPPAE.QLABEL" Value="Treatment Emergent Flag"/>
      <ItemData ItemOID="IT.SUPPAE.QVAL" Value="Y"/>
      <ItemData ItemOID="IT.SUPPAE.QORIG" Value="Derived"/>
    </ItemGroupData>
    <ItemGroupData ItemGroupOID="IG.SUPPAE" sds:ItemGroupDataSeq="57">
      <ItemData ItemOID="IT.STUDYID" Value="CDISC01"/>
      <ItemData ItemOID="IT.RDOMAIN" Value="AE"/>
      <ItemData ItemOID="IT.USUBJID" Value="CDISC01.200002"/>
      <ItemData ItemOID="IT.SUPPAE.IDVAR" Value="AESEQ"/>
      <ItemData ItemOID="IT.SUPPAE.IDVARVAL" Value="2"/>
      <ItemData ItemOID="IT.SUPPAE.QNAM" Value="HLGT"/>
      <ItemData ItemOID="IT.SUPPAE.QLABEL" Value="Higher Level Group Term"/>
      <ItemData ItemOID="IT.SUPPAE.QVAL" Value="Muscle disorders"/>
      <ItemData ItemOID="IT.SUPPAE.QORIG" Value="Assigned"/>
      <ItemData ItemOID="IT.SUPPAE.QEVAL" Value="CLINICAL STUDY SPONSOR"/>
    </ItemGroupData>
    <ItemGroupData ItemGroupOID="IG.SUPPAE" sds:ItemGroupDataSeq="58">
      <ItemData ItemOID="IT.STUDYID" Value="CDISC01"/>
      <ItemData ItemOID="IT.RDOMAIN" Value="AE"/>
      <ItemData ItemOID="IT.USUBJID" Value="CDISC01.200002"/>
      <ItemData ItemOID="IT.SUPPAE.IDVAR" Value="AESEQ"/>
      <ItemData ItemOID="IT.SUPPAE.IDVARVAL" Value="2"/>
      <ItemData ItemOID="IT.SUPPAE.QNAM" Value="HLT"/>
      <ItemData ItemOID="IT.SUPPAE.QLABEL" Value="Higher Level Term"/>
      <ItemData ItemOID="IT.SUPPAE.QVAL" Value="Muscle related signs and symptoms NEC"/>
      <ItemData ItemOID="IT.SUPPAE.QORIG" Value="Assigned"/>
      <ItemData ItemOID="IT.SUPPAE.QEVAL" Value="CLINICAL STUDY SPONSOR"/>
    </ItemGroupData>
    <ItemGroupData ItemGroupOID="IG.SUPPAE" sds:ItemGroupDataSeq="59">
      <ItemData ItemOID="IT.STUDYID" Value="CDISC01"/>
      <ItemData ItemOID="IT.RDOMAIN" Value="AE"/>
      <ItemData ItemOID="IT.USUBJID" Value="CDISC01.200002"/>
      <ItemData ItemOID="IT.SUPPAE.IDVAR" Value="AESEQ"/>
      <ItemData ItemOID="IT.SUPPAE.IDVARVAL" Value="2"/>
      <ItemData ItemOID="IT.SUPPAE.QNAM" Value="LLT"/>
      <ItemData ItemOID="IT.SUPPAE.QLABEL" Value="Lowest Level Term"/>
      <ItemData ItemOID="IT.SUPPAE.QVAL" Value="Muscle spasms"/>
      <ItemData ItemOID="IT.SUPPAE.QORIG" Value="Assigned"/>
      <ItemData ItemOID="IT.SUPPAE.QEVAL" Value="CLINICAL STUDY SPONSOR"/>
    </ItemGroupData>
    <ItemGroupData ItemGroupOID="IG.SUPPAE" sds:ItemGroupDataSeq="60">
      <ItemData ItemOID="IT.STUDYID" Value="CDISC01"/>
      <ItemData ItemOID="IT.RDOMAIN" Value="AE"/>
      <ItemData ItemOID="IT.USUBJID" Value="CDISC01.200002"/>
      <ItemData ItemOID="IT.SUPPAE.IDVAR" Value="AESEQ"/>
      <ItemData ItemOID="IT.SUPPAE.IDVARVAL" Value="3"/>
      <ItemData ItemOID="IT.SUPPAE.QNAM" Value="AETRTEM"/>
      <ItemData ItemOID="IT.SUPPAE.QLABEL" Value="Treatment Emergent Flag"/>
      <ItemData ItemOID="IT.SUPPAE.QVAL" Value="Y"/>
      <ItemData ItemOID="IT.SUPPAE.QORIG" Value="Derived"/>
    </ItemGroupData>
    <ItemGroupData ItemGroupOID="IG.SUPPAE" sds:ItemGroupDataSeq="61">
      <ItemData ItemOID="IT.STUDYID" Value="CDISC01"/>
      <ItemData ItemOID="IT.RDOMAIN" Value="AE"/>
      <ItemData ItemOID="IT.USUBJID" Value="CDISC01.200002"/>
      <ItemData ItemOID="IT.SUPPAE.IDVAR" Value="AESEQ"/>
      <ItemData ItemOID="IT.SUPPAE.IDVARVAL" Value="3"/>
      <ItemData ItemOID="IT.SUPPAE.QNAM" Value="HLGT"/>
      <ItemData ItemOID="IT.SUPPAE.QLABEL" Value="Higher Level Group Term"/>
      <ItemData ItemOID="IT.SUPPAE.QVAL" Value="Cardiac disorder signs and symptoms"/>
      <ItemData ItemOID="IT.SUPPAE.QORIG" Value="Assigned"/>
      <ItemData ItemOID="IT.SUPPAE.QEVAL" Value="CLINICAL STUDY SPONSOR"/>
    </ItemGroupData>
    <ItemGroupData ItemGroupOID="IG.SUPPAE" sds:ItemGroupDataSeq="62">
      <ItemData ItemOID="IT.STUDYID" Value="CDISC01"/>
      <ItemData ItemOID="IT.RDOMAIN" Value="AE"/>
      <ItemData ItemOID="IT.USUBJID" Value="CDISC01.200002"/>
      <ItemData ItemOID="IT.SUPPAE.IDVAR" Value="AESEQ"/>
      <ItemData ItemOID="IT.SUPPAE.IDVARVAL" Value="3"/>
      <ItemData ItemOID="IT.SUPPAE.QNAM" Value="HLT"/>
      <ItemData ItemOID="IT.SUPPAE.QLABEL" Value="Higher Level Term"/>
      <ItemData ItemOID="IT.SUPPAE.QVAL" Value="Cardiac signs and symptoms NEC"/>
      <ItemData ItemOID="IT.SUPPAE.QORIG" Value="Assigned"/>
      <ItemData ItemOID="IT.SUPPAE.QEVAL" Value="CLINICAL STUDY SPONSOR"/>
    </ItemGroupData>
    <ItemGroupData ItemGroupOID="IG.SUPPAE" sds:ItemGroupDataSeq="63">
      <ItemData ItemOID="IT.STUDYID" Value="CDISC01"/>
      <ItemData ItemOID="IT.RDOMAIN" Value="AE"/>
      <ItemData ItemOID="IT.USUBJID" Value="CDISC01.200002"/>
      <ItemData ItemOID="IT.SUPPAE.IDVAR" Value="AESEQ"/>
      <ItemData ItemOID="IT.SUPPAE.IDVARVAL" Value="3"/>
      <ItemData ItemOID="IT.SUPPAE.QNAM" Value="LLT"/>
      <ItemData ItemOID="IT.SUPPAE.QLABEL" Value="Lowest Level Term"/>
      <ItemData ItemOID="IT.SUPPAE.QVAL" Value="Palpitations"/>
      <ItemData ItemOID="IT.SUPPAE.QORIG" Value="Assigned"/>
      <ItemData ItemOID="IT.SUPPAE.QEVAL" Value="CLINICAL STUDY SPONSOR"/>
    </ItemGroupData>
  </ClinicalData>
</ODM>
