<?xml version="1.0" encoding="UTF-8"?>
<!-- StudyDataSet-XML: Untyped Data Example (DRAFT version)  --> 
<!-- Built from the SAS XPT files published with the SDTM-MSG (SDTM Metadata Submission Guidelines) V1 --> 
<!-- Prepared by Marcelina Hungria / DIcore Group, LLC --> 
<ODM
  xmlns="http://www.cdisc.org/ns/odm/v1.3"
  xmlns:xlink="http://www.w3.org/1999/xlink" 
  xmlns:sds="http://www.cdisc.org/ns/sds/v1.0"
  FileType="Snapshot"
  ODMVersion="1.3.2"
  sds:SDSVersion="1.0"
  FileOID="www.cdisc.org.Studycdisc01-Define-XML_2.0.0(IG.SUPPEG)"
  PriorFileOID="www.cdisc.org.Studycdisc01-Define-XML_2.0.0(IG.SUPPDM)"
  Originator="CDISC SDS-XML Team"
  CreationDateTime="2013-11-13T17:26:14">
  <ClinicalData
    StudyOID="cdisc01"
    MetaDataVersionOID="MDV.CDISC01.SDTMIG.3.1.2.SDTM.1.2">
    <!-- Dataset (SUPPEG) -->
    <ItemGroupData ItemGroupOID="IG.SUPPEG" sds:ItemGroupDataSeq="1">
      <ItemData ItemOID="IT.STUDYID" Value="CDISC01"/>
      <ItemData ItemOID="IT.RDOMAIN" Value="EG"/>
      <ItemData ItemOID="IT.USUBJID" Value="CDISC01.100008"/>
      <ItemData ItemOID="IT.SUPPEG.IDVAR" Value="EGSEQ"/>
      <ItemData ItemOID="IT.SUPPEG.IDVARVAL" Value="1"/>
      <ItemData ItemOID="IT.SUPPEG.QNAM" Value="EGCLSIG"/>
      <ItemData ItemOID="IT.SUPPEG.QLABEL" Value="Clinically Significant"/>
      <ItemData ItemOID="IT.SUPPEG.QVAL" Value="N"/>
      <ItemData ItemOID="IT.SUPPEG.QORIG" Value="CRF"/>
      <ItemData ItemOID="IT.SUPPEG.QEVAL" Value="INVESTIGATOR"/>
    </ItemGroupData>
    <ItemGroupData ItemGroupOID="IG.SUPPEG" sds:ItemGroupDataSeq="2">
      <ItemData ItemOID="IT.STUDYID" Value="CDISC01"/>
      <ItemData ItemOID="IT.RDOMAIN" Value="EG"/>
      <ItemData ItemOID="IT.USUBJID" Value="CDISC01.100008"/>
      <ItemData ItemOID="IT.SUPPEG.IDVAR" Value="EGSEQ"/>
      <ItemData ItemOID="IT.SUPPEG.IDVARVAL" Value="2"/>
      <ItemData ItemOID="IT.SUPPEG.QNAM" Value="EGCLSIG"/>
      <ItemData ItemOID="IT.SUPPEG.QLABEL" Value="Clinically Significant"/>
      <ItemData ItemOID="IT.SUPPEG.QVAL" Value="N"/>
      <ItemData ItemOID="IT.SUPPEG.QORIG" Value="CRF"/>
      <ItemData ItemOID="IT.SUPPEG.QEVAL" Value="INVESTIGATOR"/>
    </ItemGroupData>
    <ItemGroupData ItemGroupOID="IG.SUPPEG" sds:ItemGroupDataSeq="3">
      <ItemData ItemOID="IT.STUDYID" Value="CDISC01"/>
      <ItemData ItemOID="IT.RDOMAIN" Value="EG"/>
      <ItemData ItemOID="IT.USUBJID" Value="CDISC01.100014"/>
      <ItemData ItemOID="IT.SUPPEG.IDVAR" Value="EGSEQ"/>
      <ItemData ItemOID="IT.SUPPEG.IDVARVAL" Value="1"/>
      <ItemData ItemOID="IT.SUPPEG.QNAM" Value="EGCLSIG"/>
      <ItemData ItemOID="IT.SUPPEG.QLABEL" Value="Clinically Significant"/>
      <ItemData ItemOID="IT.SUPPEG.QVAL" Value="N"/>
      <ItemData ItemOID="IT.SUPPEG.QORIG" Value="CRF"/>
      <ItemData ItemOID="IT.SUPPEG.QEVAL" Value="INVESTIGATOR"/>
    </ItemGroupData>
    <ItemGroupData ItemGroupOID="IG.SUPPEG" sds:ItemGroupDataSeq="4">
      <ItemData ItemOID="IT.STUDYID" Value="CDISC01"/>
      <ItemData ItemOID="IT.RDOMAIN" Value="EG"/>
      <ItemData ItemOID="IT.USUBJID" Value="CDISC01.100014"/>
      <ItemData ItemOID="IT.SUPPEG.IDVAR" Value="EGSEQ"/>
      <ItemData ItemOID="IT.SUPPEG.IDVARVAL" Value="2"/>
      <ItemData ItemOID="IT.SUPPEG.QNAM" Value="EGCLSIG"/>
      <ItemData ItemOID="IT.SUPPEG.QLABEL" Value="Clinically Significant"/>
      <ItemData ItemOID="IT.SUPPEG.QVAL" Value="N"/>
      <ItemData ItemOID="IT.SUPPEG.QORIG" Value="CRF"/>
      <ItemData ItemOID="IT.SUPPEG.QEVAL" Value="INVESTIGATOR"/>
    </ItemGroupData>
    <ItemGroupData ItemGroupOID="IG.SUPPEG" sds:ItemGroupDataSeq="5">
      <ItemData ItemOID="IT.STUDYID" Value="CDISC01"/>
      <ItemData ItemOID="IT.RDOMAIN" Value="EG"/>
      <ItemData ItemOID="IT.USUBJID" Value="CDISC01.200002"/>
      <ItemData ItemOID="IT.SUPPEG.IDVAR" Value="EGSEQ"/>
      <ItemData ItemOID="IT.SUPPEG.IDVARVAL" Value="1"/>
      <ItemData ItemOID="IT.SUPPEG.QNAM" Value="EGCLSIG"/>
      <ItemData ItemOID="IT.SUPPEG.QLABEL" Value="Clinically Significant"/>
      <ItemData ItemOID="IT.SUPPEG.QVAL" Value="N"/>
      <ItemData ItemOID="IT.SUPPEG.QORIG" Value="CRF"/>
      <ItemData ItemOID="IT.SUPPEG.QEVAL" Value="INVESTIGATOR"/>
    </ItemGroupData>
    <ItemGroupData ItemGroupOID="IG.SUPPEG" sds:ItemGroupDataSeq="6">
      <ItemData ItemOID="IT.STUDYID" Value="CDISC01"/>
      <ItemData ItemOID="IT.RDOMAIN" Value="EG"/>
      <ItemData ItemOID="IT.USUBJID" Value="CDISC01.200002"/>
      <ItemData ItemOID="IT.SUPPEG.IDVAR" Value="EGSEQ"/>
      <ItemData ItemOID="IT.SUPPEG.IDVARVAL" Value="2"/>
      <ItemData ItemOID="IT.SUPPEG.QNAM" Value="EGCLSIG"/>
      <ItemData ItemOID="IT.SUPPEG.QLABEL" Value="Clinically Significant"/>
      <ItemData ItemOID="IT.SUPPEG.QVAL" Value="N"/>
      <ItemData ItemOID="IT.SUPPEG.QORIG" Value="CRF"/>
      <ItemData ItemOID="IT.SUPPEG.QEVAL" Value="INVESTIGATOR"/>
    </ItemGroupData>
  </ClinicalData>
</ODM>
