<?xml version="1.0" encoding="UTF-8"?>
<!-- StudyDataSet-XML: Untyped Data Example (DRAFT version)  --> 
<!-- Built from the SAS XPT files published with the SDTM-MSG (SDTM Metadata Submission Guidelines) V1 --> 
<!-- Prepared by Marcelina Hungria / DIcore Group, LLC --> 
<ODM
  xmlns="http://www.cdisc.org/ns/odm/v1.3"
  xmlns:xlink="http://www.w3.org/1999/xlink" 
  xmlns:sds="http://www.cdisc.org/ns/sds/v1.0"
  FileType="Snapshot"
  ODMVersion="1.3.2"
  sds:SDSVersion="1.0"
  FileOID="www.cdisc.org.Studycdisc01-Define-XML_2.0.0(IG.SUPPLB)"
  PriorFileOID="www.cdisc.org.Studycdisc01-Define-XML_2.0.0(IG.SUPPEX)"
  Originator="CDISC SDS-XML Team"
  CreationDateTime="2013-11-13T17:26:14">
  <ClinicalData
    StudyOID="cdisc01"
    MetaDataVersionOID="MDV.CDISC01.SDTMIG.3.1.2.SDTM.1.2">
    <!-- Dataset (SUPPLB) -->
    <ItemGroupData ItemGroupOID="IG.SUPPLB" sds:ItemGroupDataSeq="1">
      <ItemData ItemOID="IT.STUDYID" Value="CDISC01"/>
      <ItemData ItemOID="IT.RDOMAIN" Value="LB"/>
      <ItemData ItemOID="IT.USUBJID" Value="CDISC01.100008"/>
      <ItemData ItemOID="IT.SUPPLB.IDVAR" Value="LBSEQ"/>
      <ItemData ItemOID="IT.SUPPLB.IDVARVAL" Value="10"/>
      <ItemData ItemOID="IT.SUPPLB.QNAM" Value="LBCLSIG"/>
      <ItemData ItemOID="IT.SUPPLB.QLABEL" Value="Clinically Significant"/>
      <ItemData ItemOID="IT.SUPPLB.QVAL" Value="Y"/>
      <ItemData ItemOID="IT.SUPPLB.QORIG" Value="Derived"/>
      <ItemData ItemOID="IT.SUPPLB.QEVAL" Value="CLINICAL STUDY SPONSOR"/>
    </ItemGroupData>
    <ItemGroupData ItemGroupOID="IG.SUPPLB" sds:ItemGroupDataSeq="2">
      <ItemData ItemOID="IT.STUDYID" Value="CDISC01"/>
      <ItemData ItemOID="IT.RDOMAIN" Value="LB"/>
      <ItemData ItemOID="IT.USUBJID" Value="CDISC01.100008"/>
      <ItemData ItemOID="IT.SUPPLB.IDVAR" Value="LBSEQ"/>
      <ItemData ItemOID="IT.SUPPLB.IDVARVAL" Value="12"/>
      <ItemData ItemOID="IT.SUPPLB.QNAM" Value="LBCLSIG"/>
      <ItemData ItemOID="IT.SUPPLB.QLABEL" Value="Clinically Significant"/>
      <ItemData ItemOID="IT.SUPPLB.QVAL" Value="Y"/>
      <ItemData ItemOID="IT.SUPPLB.QORIG" Value="Derived"/>
      <ItemData ItemOID="IT.SUPPLB.QEVAL" Value="CLINICAL STUDY SPONSOR"/>
    </ItemGroupData>
  </ClinicalData>
</ODM>
